timestamp,accel_x,accel_y,accel_z,gyro_x,gyro_y,gyro_z
5.700565110659227,-3.814697265625e-06,-5.119999885559082,-8.889998970031739,0.0,0.0,0.0
5.702546100830659,5.119996070861816,-5.120003700256348,-9.464999732971192,0.0,0.0,0.0
5.705172120826319,1.239776611328125e-05,15.359999656677246,-11.174999771118165,0.0,0.0,0.0
5.707187964813784,3.814697265625e-06,5.119999885559082,-8.514998970031739,0.0,0.0,0.0
5.708906073821709,-5.119992256164551,10.24000358581543,-9.039999542236329,0.0,0.0,0.0
5.710779215674847,-10.239992141723633,10.240007400512695,-10.219998893737793,0.0,0.0,0.0
5.713672082638368,-7.62939453125e-06,-10.239999771118164,-11.894999084472657,0.0,0.0,0.0
5.715529952663928,-10.239995956420898,5.120007514953613,-7.674999294281006,0.0,0.0,0.0
5.717404030729085,-10.239999771118164,7.62939453125e-06,-9.859999237060547,0.0,0.0,0.0
5.719255671836436,-7.62939453125e-06,-10.239999771118164,-9.734999237060547,0.0,0.0,0.0
5.721140948822722,-5.119992256164551,10.24000358581543,-9.894999084472657,0.0,0.0,0.0
5.722972407704219,-7.62939453125e-06,-10.239999771118164,-9.65999942779541,0.0,0.0,0.0
5.724867049837485,20.47997283935547,-30.720014572143555,-9.954999504089356,0.0,0.0,0.0
5.726726369699463,10.239992141723633,-10.240007400512695,-9.704999504089356,0.0,0.0,0.0
5.72914451174438,-10.239984512329102,20.48000717163086,-11.079999504089356,0.0,0.0,0.0
5.730943441623822,10.239992141723633,-10.240007400512695,-8.349999008178711,0.0,0.0,0.0
5.732818702701479,0.0,0.0,-10.009999809265137,0.0,0.0,0.0
5.7346887877210975,5.119983673095703,-20.480003356933594,-9.774999198913575,0.0,0.0,0.0
5.7366152866743505,-5.119992256164551,10.24000358581543,-9.964999732971192,0.0,0.0,0.0
5.738512890646234,-10.239992141723633,10.240007400512695,-9.72999912261963,0.0,0.0,0.0
5.740384946810082,5.119999885559082,-3.814697265625e-06,-9.734999237060547,0.0,0.0,0.0
5.742312433663756,-5.119983673095703,20.480003356933594,-9.939999160766602,0.0,0.0,0.0
5.74418487562798,10.239992141723633,-10.240007400512695,-9.649999198913575,0.0,0.0,0.0
5.74611982377246,5.119999885559082,-3.814697265625e-06,-9.984999237060547,0.0,0.0,0.0
5.748021653620526,0.0,0.0,-9.714999732971192,0.0,0.0,0.0
5.7499112787190825,7.62939453125e-06,10.239999771118164,-9.759999809265137,0.0,0.0,0.0
5.751777798635885,15.3599853515625,-20.480010986328125,-9.734999237060547,0.0,0.0,0.0
5.7536236247979105,-5.119999885559082,3.814697265625e-06,-9.75499969482422,0.0,0.0,0.0
5.755566093837842,0.0,0.0,-10.024999198913575,0.0,0.0,0.0
5.757372905733064,10.239992141723633,-10.240007400512695,-9.439999160766602,0.0,0.0,0.0
5.759413061663508,3.814697265625e-06,5.119999885559082,-10.389998970031739,0.0,0.0,0.0
5.761115623638034,10.239992141723633,-10.240007400512695,-8.90999942779541,0.0,0.0,0.0
5.763007212663069,-15.359973907470703,30.720012664794922,-10.334999618530274,0.0,0.0,0.0
5.764885363634676,0.0,0.0,-9.75499969482422,0.0,0.0,0.0
5.766799885779619,5.119999885559082,-3.814697265625e-06,-9.894999084472657,0.0,0.0,0.0
5.768613808788359,-10.239992141723633,10.240007400512695,-9.544999656677247,0.0,0.0,0.0
5.770462023792788,10.239992141723633,-10.240007400512695,-9.884999809265137,0.0,0.0,0.0
5.7723889767657965,10.239999771118164,-7.62939453125e-06,-9.984999237060547,0.0,0.0,0.0
5.774315480841324,5.119999885559082,-3.814697265625e-06,-9.799999771118165,0.0,0.0,0.0
5.7762008076533675,5.119999885559082,-3.814697265625e-06,-9.704999504089356,0.0,0.0,0.0
5.778094705659896,10.239984512329102,-20.48000717163086,-9.809999046325684,0.0,0.0,0.0
5.780044011771679,5.119983673095703,-20.480003356933594,-9.919999656677247,0.0,0.0,0.0
5.783296407666057,-10.239999771118164,7.62939453125e-06,-12.25999885559082,0.0,0.0,0.0
5.7854003687389195,10.239992141723633,-10.240007400512695,-7.69499927520752,0.0,0.0,0.0
5.788574766833335,2.559999942779541,-1.9073486328125e-06,-11.789999542236329,0.0,0.0,0.0
5.791371660772711,-5.119997978210449,2.5600037574768066,-9.177499351501465,0.0,0.0,0.0
5.793553429655731,3.814697265625e-06,5.119999885559082,-8.59749942779541,0.0,0.0,0.0
5.795624993741512,3.814697265625e-06,5.119999885559082,-9.549999771118165,0.0,0.0,0.0
5.7975749196484685,0.0,0.0,-9.499999580383301,0.0,0.0,0.0
5.799367104656994,-10.239992141723633,10.240007400512695,-9.404999313354493,0.0,0.0,0.0
5.801324687665328,5.119999885559082,-3.814697265625e-06,-10.22999912261963,0.0,0.0,0.0
5.8033045758493245,-5.119992256164551,10.24000358581543,-9.85499912261963,0.0,0.0,0.0
5.805226579774171,5.119999885559082,-3.814697265625e-06,-9.639998970031739,0.0,0.0,0.0
5.80687173968181,-7.62939453125e-06,-10.239999771118164,-9.054998931884766,0.0,0.0,0.0
5.80880605080165,-10.239992141723633,10.240007400512695,-10.594998893737793,0.0,0.0,0.0
5.810738384723663,-10.239984512329102,20.48000717163086,-9.789999542236329,0.0,0.0,0.0
5.812799850711599,5.119992256164551,-10.24000358581543,-10.10499912261963,0.0,0.0,0.0
5.8147620528470725,5.119999885559082,-3.814697265625e-06,-9.564999160766602,0.0,0.0,0.0
5.816786531824619,5.120003700256348,5.119996070861816,-9.954999504089356,0.0,0.0,0.0
5.818782270653173,3.814697265625e-06,5.119999885559082,-9.739999351501465,0.0,0.0,0.0
5.820839487714693,-5.119996070861816,5.120003700256348,-9.939999160766602,0.0,0.0,0.0
5.822751136729494,10.239992141723633,-10.240007400512695,-9.434999046325684,0.0,0.0,0.0
5.82476100162603,5.119999885559082,-3.814697265625e-06,-10.039999542236329,0.0,0.0,0.0
5.826682231621817,-10.239992141723633,10.240007400512695,-9.599999008178711,0.0,0.0,0.0
5.828558869659901,10.239984512329102,-20.48000717163086,-9.674999771118165,0.0,0.0,0.0
5.830479487776756,0.0,0.0,-9.90999942779541,0.0,0.0,0.0
5.832447521621361,10.239999771118164,-7.62939453125e-06,-9.919999656677247,0.0,0.0,0.0
5.834270098712295,0.0,0.0,-9.424999771118165,0.0,0.0,0.0
5.836339483736083,-5.119992256164551,10.24000358581543,-10.419999656677247,0.0,0.0,0.0
5.838247011648491,5.119992256164551,-10.24000358581543,-9.404999313354493,0.0,0.0,0.0
5.840143842622638,-5.119983673095703,20.480003356933594,-9.779999313354493,0.0,0.0,0.0
5.842001207638532,15.359991073608398,-10.240012168884277,-9.679998931884766,0.0,0.0,0.0
5.8438434498384595,-5.120007514953613,-10.239995956420898,-9.764998970031739,0.0,0.0,0.0
5.845780541654676,5.119983673095703,-20.480003356933594,-10.039999542236329,0.0,0.0,0.0
5.847705283667892,-5.119992256164551,10.24000358581543,7.372500839233398,7.147436420495978e-09,1.4265624237452812e-09,-1.3434329663979878e-17
5.849575438769534,10.239984512329102,-20.48000717163086,18.04250091552734,1.8746447949524736e-08,4.160549238463318e-09,1.3153371621055232e-11
5.851447565713897,15.3599853515625,-20.480010986328125,17.817498626708982,2.931552067764187e-08,6.907992400329022e-09,2.7128046337088207e-11
5.8533700606785715,-5.119983673095703,20.480003356933594,17.614999237060545,4.2365748242900736e-08,1.043840924808137e-08,3.2565741769907675e-11
5.855397078674287,5.119992256164551,-10.24000358581543,17.40500015258789,5.7962875388284374e-08,1.170811714246156e-08,3.433715811684834e-11
5.8582186286803335,0.0,0.0,17.45374816894531,7.387999545471757e-08,1.5532684471963876e-08,4.032042755230947e-11
5.860130574787036,-5.119996070861816,5.120003700256348,16.314999999999998,8.68864304948147e-08,1.882812483700036e-08,3.22450538492447e-11
5.8624667536932975,3.814697265625e-06,5.119999885559082,16.76500076293945,9.696861980046378e-08,2.0577836323809606e-08,2.5263638403494326e-11
5.865991776809096,-2.559999942779541,1.9073486328125e-06,16.716248931884763,1.1172240732548744e-07,2.4509077434231585e-08,2.185059078119167e-11
5.868291044840589,2.559999942779541,-1.9073486328125e-06,15.296250762939453,1.2406184168867185e-07,2.5686844651318097e-08,-6.811384789529029e-12
5.870355797698721,5.119992256164551,-10.24000358581543,15.43250030517578,1.3427715828129294e-07,2.75003628757986e-08,-1.6888421217053917e-11
5.872581876814365,-7.62939453125e-06,-10.239999771118164,15.434998931884765,1.4536369974393892e-07,2.837653312326438e-08,-1.7571555321893584e-11
5.874674613820389,3.814697265625e-06,5.119999885559082,14.997498931884765,1.5394667229884362e-07,3.2248607340079616e-08,-2.5709476214608173e-11
5.876432643737644,10.239992141723633,-10.240007400512695,14.607499542236328,1.644458791361103e-07,3.358319133894838e-08,-3.808511145342308e-11
5.878347935620695,-5.120007514953613,-10.239995956420898,14.774999084472656,1.750397871091991e-07,3.481014232420421e-08,-3.539282755760098e-11
5.880348789738491,-5.119992256164551,10.24000358581543,14.49500030517578,1.861457974428049e-07,3.43963932891711e-08,-3.6033495631748735e-11
5.882228535832837,10.239984512329102,-20.48000717163086,14.112500610351562,1.9662797967612278e-07,3.492685607398016e-08,-3.661410064026427e-11
5.884108762722462,-5.119999885559082,3.814697265625e-06,14.007501068115234,2.071563898198292e-07,3.522997360505542e-08,-3.4694316863870256e-11
5.886085921665654,-10.239999771118164,7.62939453125e-06,13.872498931884765,2.1601977095997427e-07,3.602667675295379e-08,-3.540806536861396e-11
5.888005719752982,-10.239992141723633,10.240007400512695,13.53000015258789,2.255963806874206e-07,3.8200028029677924e-08,-4.140916776140813e-11
5.889741125749424,-10.239984512329102,20.48000717163086,13.207499923706054,2.3388855652228813e-07,3.8898775756024406e-08,-4.9806755941794734e-11
5.891718439757824,0.0,0.0,13.40500015258789,2.4431031420135696e-07,3.922102109754633e-08,-4.717432000589383e-11
5.8935896176844835,-5.119999885559082,3.814697265625e-06,12.892499389648437,2.5119277324847644e-07,3.997897124463634e-08,-5.210114284448508e-11
5.895306149730459,-10.239984512329102,20.48000717163086,12.642499389648437,2.587548237897863e-07,4.046790991196758e-08,-5.780106948627406e-11
5.897372830659151,-10.239986419677734,15.360007286071777,12.898749771118164,2.67924747276993e-07,4.030582090308599e-08,-5.392641888590788e-11
5.899075736757368,5.119999885559082,-3.814697265625e-06,12.079999389648437,2.747311498296767e-07,4.1208323864339036e-08,-6.364295201954917e-11
5.900958453770727,7.62939453125e-06,10.239999771118164,12.382501068115234,2.8318055456111324e-07,4.2205158479191596e-08,-6.028835763949303e-11
5.902989192632958,15.359987258911133,-15.36001205444336,12.152501525878906,2.951512101390108e-07,4.304035883251345e-08,-5.907060951493293e-11
5.9048563616815954,-5.119999885559082,3.814697265625e-06,11.676249923706054,3.237372538933414e-07,4.4144627509012935e-08,-9.445799697971324e-10
5.906650439836085,5.119999885559082,-3.814697265625e-06,11.579999389648437,3.2343265843337576e-07,4.464104108592437e-08,-9.079015317325911e-12
5.908333498751745,20.479999542236328,-1.52587890625e-05,11.352500381469726,3.2460889087815303e-07,4.5531265868703485e-08,1.2032019824914642e-10
5.9101911436300725,10.239992141723633,-10.240007400512695,11.46750015258789,-9.319122113993217e-07,4.392046548673534e-08,-8.797753636713423e-10
5.912072177743539,15.359999656677246,-1.239776611328125e-05,11.133750381469726,3.8318722772601177e-07,4.759442617796594e-08,-1.254859993693458e-09
5.913969774730504,5.119992256164551,-10.24000358581543,10.946250381469726,3.8433609006460756e-07,4.89499427658302e-08,-4.5887960098411895e-10
5.91580839571543,-7.62939453125e-06,-10.239999771118164,10.695001068115234,3.699313992910902e-07,4.882949156126415e-08,6.185603140806961e-10
5.917684241663665,0.0,0.0,10.612500610351562,3.6001705439048237e-07,4.9600259899307275e-08,6.231729576811063e-10
5.919585746712983,0.0,0.0,10.427499237060546,3.788959475059528e-07,4.999401426175609e-08,-3.289332139999601e-10
5.921467298641801,1.52587890625e-05,20.479999542236328,10.204999389648437,3.9324660860984295e-07,5.058848273620242e-08,-3.385323132931717e-10
5.9234936877619475,5.119999885559082,-3.814697265625e-06,10.18250030517578,4.061857055148721e-07,5.1945704626632505e-08,-4.3178749464800603e-10
5.925329150632024,0.0,0.0,9.701249542236328,-1.34990148126235e-06,-1.8958758118969854e-07,1.4101231293750516e-10
5.927069937810302,7.62939453125e-06,10.239999771118164,9.613749923706054,4.050092456964194e-07,5.330025487637613e-08,4.89217555355026e-11
5.929852827684954,5.119999885559082,-3.814697265625e-06,10.323750915527343,-1.3508642950910144e-06,-1.8735727280727588e-07,2.3084756328728417e-10
5.931762516731396,15.359991073608398,-10.240012168884277,8.652501525878906,4.0775162801764964e-07,5.572721306634776e-08,7.488368258812272e-11
5.933650912716985,-10.239984512329102,20.48000717163086,9.126250686645507,-8.868609029377694e-07,5.4799158988316776e-08,4.2150194445866873e-10
5.935505770845339,0.0,0.0,8.957499923706054,4.06367689720355e-07,5.878879960619088e-08,-2.6563057309303417e-11
5.937377391848713,5.119992256164551,-10.24000358581543,8.847501220703125,-4.326985276748019e-07,-1.8011112956628494e-07,1.2494727474887668e-10
5.939348905812949,-5.119983673095703,20.480003356933594,8.753751220703125,4.0390128219769394e-07,6.113293693488231e-08,2.051062930608083e-10
5.941214431775734,-5.119992256164551,10.24000358581543,8.402501525878906,3.9839551391196437e-07,6.225636184353789e-08,4.2607195549493326e-10
5.943091774825007,0.0,0.0,8.37375015258789,4.1172231135533366e-07,6.378493822012388e-08,-4.2356573803914443e-10
5.9449553897138685,-5.119992256164551,10.24000358581543,8.183751525878906,4.0446477100886113e-07,6.496807714029273e-08,2.7909474731302453e-10
5.946807533735409,5.119992256164551,-10.24000358581543,8.044999542236328,4.034845062506065e-07,6.617293024646642e-08,3.023108430255661e-10
5.948647232726216,7.62939453125e-06,10.239999771118164,7.903750839233398,-1.3153562576917466e-06,-1.753312517394079e-07,-1.1821971179770685e-09
5.950479513732716,15.359991073608398,-10.240012168884277,7.761250915527343,4.573188903123082e-07,6.803057317483763e-08,-1.3892074157695333e-09
5.952433625701815,-5.119992256164551,10.24000358581543,7.731250228881835,4.5697484551965317e-07,6.807758268223552e-08,-2.449742630972196e-10
5.955251552630216,-5.119999885559082,3.814697265625e-06,8.05750030517578,4.3783842329503386e-07,6.95266066941258e-08,7.267935142607485e-10
5.957382184686139,5.120003700256348,5.119996070861816,6.782500686645507,-1.2825331623389502e-06,-1.713862047836301e-07,-1.0683016693491254e-09
5.959462576778606,-5.119992256164551,10.24000358581543,7.054999771118164,4.82757855024829e-07,7.085156994435238e-08,-8.934581963160326e-10
5.962050824658945,10.239992141723633,-10.240007400512695,7.306249084472656,4.5791028924213606e-07,6.985408163018292e-08,8.63092264324905e-10
5.964106099680066,-3.814697265625e-06,-5.119999885559082,6.373124542236328,4.448870640771929e-07,7.017354164418066e-08,7.857918760123539e-10
5.966056304750964,5.119996070861816,-5.120003700256348,6.536250534057617,4.601702983109135e-07,7.058926598801918e-08,-5.250632151287959e-10
5.968033100711182,5.119992256164551,-10.24000358581543,6.510625305175781,4.731112142053462e-07,7.146934422053164e-08,-6.090039583739326e-10
5.969825827749446,10.239992141723633,-10.240007400512695,6.1912512207031245,-8.260035428975243e-07,-4.08962534947932e-07,-1.208169120303637e-10
5.97170542483218,-5.119983673095703,20.480003356933594,6.31125015258789,4.6514546170328686e-07,7.199639640020905e-08,2.8188484879621e-10
5.973581159720197,-10.239999771118164,7.62939453125e-06,6.103749694824218,4.537331506071496e-07,7.19949468930281e-08,6.672636887472549e-10
5.975452156737447,10.239974975585938,-30.720006942749023,5.9762501144409175,4.692960260399559e-07,7.294931947399164e-08,-5.332759789311581e-10
5.97731540678069,7.62939453125e-06,10.239999771118164,5.852500381469726,-1.2641016837733332e-06,-1.6959586446319008e-07,-6.353558235083767e-10
5.979262344771996,15.3599853515625,-20.480010986328125,5.818749847412109,5.05131026784511e-07,7.219591680041049e-08,-1.1982197456461563e-09
5.981326158624142,5.119996070861816,-5.120003700256348,5.699374618530273,5.030783540860284e-07,7.144888058974175e-08,-2.5420199278869404e-10
5.9829945168457925,-10.239999771118164,7.62939453125e-06,5.146250190734863,4.833560183215013e-07,7.064505780363106e-08,1.032565144498676e-09
5.9848828837275505,-10.239999771118164,7.62939453125e-06,5.589999618530273,4.821150128009322e-07,6.968855359446025e-08,6.044810207939122e-10
5.986909890780225,-5.119992256164551,10.24000358581543,5.375000419616699,4.859929276790353e-07,6.988432232901687e-08,3.402768067317652e-10
5.988778618630022,-5.119999885559082,3.814697265625e-06,5.023749771118164,4.7209383069457544e-07,7.03879265984142e-08,8.844438514898911e-10
5.990796593716368,-5.120003700256348,-5.119996070861816,5.152499618530273,4.637806227947294e-07,7.071298568916973e-08,7.593936590666317e-10
5.992910709697753,-5.119999885559082,3.814697265625e-06,4.980624618530273,4.916876719107677e-07,6.980548050705693e-08,-8.074296786730883e-10
5.994880377780646,-5.119996070861816,5.120003700256348,4.685000839233398,4.769418069372477e-07,7.032571147647104e-08,6.039527766787955e-10
5.996829982846975,-10.239984512329102,20.48000717163086,4.673750343322753,-1.2512551847976283e-06,-1.7479612779425224e-07,-4.095334626974534e-10
5.998838626779616,5.119999885559082,-3.814697265625e-06,4.614375534057617,5.072802196082193e-07,6.631501037190901e-08,-3.073101773054532e-10
6.000631861621514,7.62939453125e-06,10.239999771118164,4.301875534057617,4.977115963811229e-07,6.549538511535502e-08,7.106298882675333e-10
6.003729696851224,-12.79998779296875,15.360010147094727,5.108437957763671,-4.2030919189528504e-07,-4.1454512711425195e-07,1.4881429422075598e-10
6.006376516772434,0.0,0.0,3.962500038146972,5.158476028555015e-07,6.439546496039839e-08,-4.772484629711471e-10
6.008549075806513,-5.119992256164551,10.24000358581543,3.7812504196166987,4.91446996875311e-07,6.363569582390483e-08,1.0461207455847443e-09
6.011012754635885,5.119999885559082,-3.814697265625e-06,4.115000190734863,4.981218921784603e-07,6.465228352681152e-08,4.154154797930687e-11
6.012928301701322,5.119992256164551,-10.24000358581543,3.4793753051757808,-1.2400911373333656e-06,-1.7729576029523741e-07,-6.080054237855848e-10
6.0149941358249635,-15.3599853515625,20.480010986328125,3.846875610351562,5.043252144787402e-07,6.589448275917675e-08,1.4373233159226118e-10
6.016923337709159,-7.62939453125e-06,-10.239999771118164,3.5518755340576167,4.867491156801407e-07,6.662821760983206e-08,1.003459315640498e-09
6.018944012699649,-10.239992141723633,10.240007400512695,3.60812515258789,4.745016610741004e-07,6.78972469358996e-08,9.088760855036071e-10
6.020853036781773,15.359999656677246,-1.239776611328125e-05,3.3818754577636714,4.919446610074374e-07,6.989574785620789e-08,-9.311749149532034e-10
6.022685907781124,-10.239984512329102,20.48000717163086,3.3049997711181636,5.038306483129418e-08,-1.6846958317273675e-07,-1.6962713456081246e-09
6.024593384703621,-5.120007514953613,-10.239995956420898,3.3487505340576167,4.381143980936031e-08,-1.6920282064347703e-07,-3.1213157059006846e-11
6.0265820326749235,5.119992256164551,-10.24000358581543,3.2550005340576167,4.911542532681779e-07,7.076852170939674e-08,7.527829470888037e-10
6.028458449756727,10.239999771118164,-7.62939453125e-06,3.035624923706054,4.802411126547668e-07,7.126885748220957e-08,8.847853560922658e-10
6.030382942641154,5.120007514953613,10.239995956420898,3.066874923706054,5.214257043917314e-07,7.351388831011718e-08,-2.837270862698915e-09
6.0323225618340075,15.3599853515625,-20.480010986328125,2.957499923706054,5.06008234424371e-07,7.28723534848541e-08,4.4292836065551455e-10
6.034258947707713,10.239999771118164,-7.62939453125e-06,2.875625076293945,4.610052428688505e-08,-1.6893812926355167e-07,1.7828583054324554e-10
6.036207722732797,10.239984512329102,-20.48000717163086,2.7931255722045893,4.1912002757271694e-08,-1.6982339445803518e-07,4.964751942893031e-10
6.038221168797463,5.119996070861816,-5.120003700256348,2.755625190734863,5.243060741122463e-07,6.983589173614746e-08,-1.3647714069975336e-09
6.040209915721789,-5.119996070861816,5.120003700256348,2.615000190734863,-2.064819682345842e-06,6.40618509351043e-08,5.135596392591424e-10
6.042196493828669,-15.3599853515625,20.480010986328125,2.5493749999999995,5.449774675980734e-07,6.945617769815726e-08,-2.2662640652981736e-09
6.044165280647576,-20.479991912841797,10.240015029907227,2.4681257629394526,5.167586891730025e-07,6.885596803840599e-08,1.020833861886672e-09
6.04598963377066,5.119999885559082,-3.814697265625e-06,2.318749847412109,5.883305220777402e-08,-1.7098062699005823e-07,-4.3214376521660824e-10
6.047916386742145,15.359991073608398,-10.240012168884277,2.4056257629394526,-2.043962012976408e-06,6.602613211725838e-08,-1.1800274091200436e-09
6.050087450770661,-7.62939453125e-06,-10.239999771118164,2.403750839233398,5.292273499435396e-07,6.912358685440267e-08,-1.3415946131800638e-10
6.052251122659072,5.119999885559082,-3.814697265625e-06,2.1825003051757808,5.221210130912368e-07,6.991047030169284e-08,-3.5880698412427137e-10
6.054353485815227,10.239986419677734,-15.360007286071777,2.078750076293945,4.299529621221154e-08,-1.7167704413623142e-07,9.366527553567039e-10
6.0564591297879815,5.120003700256348,5.119996070861816,2.04562515258789,5.08631671891635e-07,6.790963880121126e-08,-3.28991278664148e-10
6.058481369633228,5.119999885559082,-3.814697265625e-06,1.925625267028808,4.851054882237804e-07,6.600168944714824e-08,1.3530463416344674e-09
6.060506604844704,10.239984512329102,-20.48000717163086,1.9118751907348628,1.437699381767743e-08,-1.7496682858109125e-07,7.329266082933827e-10
6.062533808639273,15.359987258911133,-15.36001205444336,1.846875610351562,4.6621374849564745e-07,6.36379127172404e-08,8.279720242754252e-10
6.064488634699956,5.119999885559082,-3.814697265625e-06,1.7400001907348628,4.501286525737669e-07,6.338319735732512e-08,1.1823231282903635e-09
6.0662237296346575,-5.119992256164551,10.24000358581543,1.597500267028808,4.6172658585419413e-07,6.449414513554075e-08,-8.411049634560186e-10
6.06812685681507,15.3599853515625,-20.480010986328125,1.769375267028808,-1.2890205880466965e-06,-1.7850663880381035e-07,7.30482341282368e-12
6.070329082664102,-3.814697265625e-06,-5.119999885559082,1.7518753433227534,3.616685262386454e-08,-1.7590977563486376e-07,-2.538235399640598e-09
6.071972016710788,-7.62939453125e-06,-10.239999771118164,1.253750267028808,-3.4766782164297183e-07,-1.7847457911557285e-07,-5.903036393029026e-11
6.07412957563065,-25.599992752075195,10.240020751953125,1.7612509155273433,4.950624656885338e-07,6.096155402701697e-08,-7.090052989155993e-10
6.075752909760922,-10.240007400512695,-10.239992141723633,1.1725000762939448,5.104393494548276e-07,6.113646122685168e-08,-1.9990178401485537e-09
6.078658008715138,10.239999771118164,-7.62939453125e-06,1.8978132629394526,3.4579542784740624e-08,-1.7932985940660728e-07,-3.0238378467828397e-10
6.0807587467134,5.119996070861816,-5.120003700256348,1.0268759155273433,-3.5910304063691e-07,-1.818860937419231e-07,8.469975831815191e-10
6.082488767802715,-5.119992256164551,10.24000358581543,1.0800003433227534,-2.11175733966229e-06,5.275592229736503e-08,1.098762192341951e-09
6.084484386723489,-10.239999771118164,7.62939453125e-06,1.3500008010864253,4.842597149945504e-07,5.6702617712289793e-08,-1.520088943607334e-09
6.08638316183351,7.62939453125e-06,10.239999771118164,1.112500610351562,-3.5542910836738884e-09,-1.8509643950892496e-07,1.0865381927516182e-09
6.088201590813696,-5.119992256164551,10.24000358581543,1.0831255340576167,4.5469278120435774e-07,5.5067147286536056e-08,-1.5384893359282614e-10
6.091349842725322,12.799999237060547,-2.5600099563598633,1.4940628433227534,-7.795378564878774e-09,-1.8591735795325803e-07,-8.484191127422491e-10
6.09317080071196,3.814697265625e-06,5.119999885559082,0.5731253051757808,-2.1394912437244784e-06,4.772709871758707e-08,9.460181527032319e-10
6.095201862743124,0.0,0.0,1.0518755340576167,-2.1340802049962804e-06,4.690900823334232e-08,-1.9430262954145405e-10
6.0974121547769755,15.359979629516602,-25.600013732910156,0.971875610351562,-2.0206982753734337e-08,2.9024590730841737e-07,3.084366650973891e-10
6.099424227839336,3.814697265625e-06,5.119999885559082,0.7912506484985347,4.109095357307524e-07,5.157662030796928e-08,1.194900622891737e-09
6.101307442644611,0.0,0.0,0.7693752670288081,3.9215578340190405e-07,5.147481374478957e-08,1.4909184997691227e-09
6.103399240644649,0.0,0.0,0.8581251525878901,3.9130276263676933e-07,5.024514848628314e-08,2.77796730063784e-10
6.105200301622972,-5.119992256164551,10.24000358581543,0.6337503814697261,-1.3624262464873027e-06,-1.9208903268008726e-07,4.660556385260861e-10
6.107278460636735,-5.119983673095703,20.480003356933594,0.8056253814697261,3.836996143036231e-07,4.989621515960607e-08,1.3990766878357874e-10
6.108959335833788,-10.239992141723633,10.240007400512695,0.5024999999999995,3.731240099114075e-07,4.948253717884654e-08,8.837423015606305e-10
6.110816429834813,-5.119983673095703,20.480003356933594,0.701250495910644,3.621380528784357e-07,4.881107429355325e-08,8.777936155723864e-10
6.112779690651223,10.239992141723633,-10.240007400512695,0.6400007629394526,3.7178975276219717e-07,4.827256816497538e-08,-4.319927748852592e-10
6.114680539816618,10.239992141723633,-10.240007400512695,0.5443758392333979,3.758203774850699e-07,4.7619295173717546e-08,-4.1312375742563745e-10
6.117696397705004,2.5599961280822754,-5.120001792907715,0.79718822479248,3.818778679942625e-07,4.6559080146835186e-08,-5.854876583555324e-10
6.119745518779382,3.814697265625e-06,5.119999885559082,0.23062557220458935,-2.188892949561705e-06,4.0404984247288667e-08,-4.322864288752726e-11
6.1215919717215,0.0,0.0,0.3762506866455073,3.9006471297398093e-07,4.479556992009748e-08,-5.244435996587526e-10
6.123353423783556,10.239999771118164,-7.62939453125e-06,0.38375038146972607,-1.352720914837846e-06,-1.9769561276916647e-07,-6.083235026821399e-10
6.125321071827784,10.239992141723633,-10.240007400512695,0.44750064849853466,3.8779063515903545e-07,4.374771833681734e-08,2.0261942124122356e-10
6.127171525731683,7.62939453125e-06,10.239999771118164,0.30875057220458935,-1.3699748251383426e-06,-1.9876699752785498e-07,5.902758282161358e-10
6.129918201826513,-10.239992141723633,10.240007400512695,0.5331253433227534,3.9563809650644544e-07,4.258185981598217e-08,-6.978764233167567e-10
6.131814444670454,5.119992256164551,-10.24000358581543,0.07374996185302685,3.9040349975039135e-07,4.178846779723244e-08,-1.4630741063115238e-11
6.133676291676238,-15.3599853515625,20.480010986328125,0.24625057220458935,-1.3705777064387803e-06,-2.0076765849807998e-07,6.844513844583844e-10
6.1357572907581925,-5.119992256164551,10.24000358581543,0.27937549591064403,-1.366925289403298e-06,-2.0175059489702107e-07,-1.441705088645051e-10
6.137769653694704,5.119999885559082,-3.814697265625e-06,0.18250030517578075,-1.365367666039674e-06,-2.0259687971702078e-07,-2.446454150373256e-10
6.139772376744077,-10.239986419677734,15.360007286071777,0.16875022888183544,3.856506509691826e-07,3.957921990149771e-08,-4.875879699994812e-10
6.141844530822709,3.814697265625e-06,5.119999885559082,0.15625041961669872,3.626956583957508e-07,3.8390680856537074e-08,1.2153682504845165e-09
6.143882584758103,10.239986419677734,-15.360007286071777,0.10625022888183544,3.6220242805029557e-07,3.839619466816657e-08,2.795084996787267e-10
6.145905840676278,5.119996070861816,-5.120003700256348,0.08750003814697216,3.4578974350552016e-07,3.8754421893827384e-08,1.0628022906189472e-09
6.147817104822025,-10.239992141723633,10.240007400512695,0.03625053405761669,3.335181020247546e-07,3.8999360185698606e-08,9.96096538585789e-10
6.1497428067959845,5.119999885559082,-3.814697265625e-06,0.051250877380370596,3.4002201232397056e-07,3.822779603979143e-08,-3.3423985801306344e-10
6.152669744798914,-5.119992256164551,10.24000358581543,0.18625015258789013,-1.3923965980211506e-06,-2.0522259092103923e-07,-1.0474436873408877e-09
6.1546165137551725,5.119999885559082,-3.814697265625e-06,-0.17562442779541065,-9.324566576651705e-07,3.448593588473159e-08,-2.9428398606867745e-10
6.156561998650432,5.119983673095703,-20.480003356933594,-0.02374988555908253,-1.0428487939861952e-07,2.750159637798788e-07,3.975130224986856e-10
6.158436906756833,5.119992256164551,-10.24000358581543,-0.07124954223632862,3.384201932021824e-07,3.7567559729723143e-08,5.768872046729712e-10
6.160371765727177,-7.62939453125e-06,-10.239999771118164,-0.053749618530273935,3.287902075044258e-07,3.9055663592080236e-08,4.973013112419267e-10
6.16226501064375,5.120007514953613,10.239995956420898,-0.0912500000000005,3.1858749593993707e-07,3.918597712981864e-08,7.846405747358176e-10
6.16415611281991,-10.239999771118164,7.62939453125e-06,-0.11249977111816456,3.117189635304385e-07,3.94638561829197e-08,6.968002841389875e-10
6.166235000826418,-5.119996070861816,5.120003700256348,-0.08374935150146534,-1.4329202713270206e-06,-2.0212826257193228e-07,1.936228954946273e-12
6.167959654703736,7.62939453125e-06,10.239999771118164,-0.21124988555908253,3.205392999916512e-07,4.010476573057531e-08,-4.2483339068866144e-10
6.169959701830521,0.0,0.0,-0.10249954223632862,3.1382711540572927e-07,4.046717094752239e-08,4.1903081005045806e-10
6.171777087729424,-15.359991073608398,10.240012168884277,-0.20874935150146534,-1.4132365322439e-07,2.799969536226854e-07,2.232021373282933e-10
6.173646634677425,10.239992141723633,-10.240007400512695,-0.1824994659423833,3.12345008524062e-07,4.1822517005130067e-08,-3.1733282668255924e-11
6.175810817629099,5.119996070861816,-5.120003700256348,-0.1537500000000005,-9.756242889125133e-07,4.076969162269961e-08,9.204959017239389e-11
6.177667687647045,-10.239992141723633,10.240007400512695,-0.2649999237060552,3.1730905902804807e-07,4.3908300995099125e-08,-4.040132672855634e-10
6.179593567736447,15.359991073608398,-10.240012168884277,-0.22249942779541065,3.107344355157693e-07,4.4834024492956814e-08,3.011111915363074e-10
6.1816753428429365,-5.119996070861816,5.120003700256348,-0.231249389648438,3.0696818953401817e-07,4.569045586322318e-08,3.650062474491733e-10
6.184017373714596,10.239992141723633,-10.240007400512695,-0.22499996185302784,3.056439084048179e-07,4.6184737811927334e-08,2.933933096471719e-10
6.185833286726847,10.239992141723633,-10.240007400512695,-0.3524995422363286,3.051970338674437e-07,4.678537379732006e-08,2.23504936780472e-10
6.187799888662994,-10.239984512329102,20.48000717163086,-0.262499389648438,3.0432380526690395e-07,4.731583658212912e-08,1.650911074513317e-10
6.189752833684906,10.239984512329102,-20.48000717163086,-0.30374961853027393,3.1805322464606434e-07,4.7986503659558366e-08,-8.62328208839358e-10
6.191671181702986,-5.120007514953613,-10.239995956420898,-0.31624942779541065,-1.4251068023440894e-06,-1.9384253846510546e-07,-4.4857717540480735e-10
6.193545712623745,-10.239999771118164,7.62939453125e-06,-0.3287492370605474,3.312403578092926e-07,4.901676220470108e-08,-6.0171090332517e-10
6.195433879736811,-5.119999885559082,3.814697265625e-06,-0.3412500000000005,3.350334054630366e-07,4.98771726142877e-08,-4.990403645876995e-10
6.198127434821799,-3.814697265625e-06,-5.119999885559082,-0.27374988555908253,3.3998293247350375e-07,5.060309149484965e-08,-5.772751165977752e-10
6.200195633806288,5.120003700256348,5.119996070861816,-0.4062495803833013,3.3105717989201366e-07,5.036793027102249e-08,4.887725779667562e-10
6.202291135676205,5.119996070861816,-5.120003700256348,-0.36499935150146534,-1.4146373814583058e-06,-1.9173398868588265e-07,2.371858265348692e-11
6.204199511790648,15.3599853515625,-20.480010986328125,-0.4024997329711919,3.3761301665435894e-07,5.056384111412626e-08,-3.72627928513225e-10
6.206150372745469,7.62939453125e-06,10.239999771118164,-0.37874942779541065,3.397708780994435e-07,5.073974307379103e-08,-4.822847676777542e-10
6.208043661667034,-7.62939453125e-06,-10.239999771118164,-0.4074998474121099,-9.50916103192867e-07,4.920366336591542e-08,2.684441557931905e-10
6.210076483665034,-10.239992141723633,10.240007400512695,-0.3862491226196294,3.3946534472306666e-07,5.2310127784949145e-08,-1.4081927290909846e-10
6.211979140760377,-5.119999885559082,3.814697265625e-06,-0.4224992370605474,3.309429814635223e-07,5.3055003945701174e-08,5.325971885739023e-10
6.214017290621996,5.119983673095703,-20.480003356933594,-0.4049993133544927,3.251036559959175e-07,5.3387054776976584e-08,5.51729995024175e-10
6.21603332972154,3.814697265625e-06,5.119999885559082,-0.4324994659423833,3.2132663818629226e-07,5.429714633464755e-08,4.4535286569669097e-10
6.2179225366562605,0.0,0.0,-0.4374995803833013,3.3430202961426403e-07,5.436811534309527e-08,-7.954952252475778e-10
6.220383478794247,5.119987487792969,-15.360003471374512,-0.4074998474121099,3.4550077998574125e-07,5.4273527894110885e-08,-9.172187453998504e-10
6.222464235732332,15.359991073608398,-10.240012168884277,-0.4674993133544927,3.350008626057388e-07,5.4792820947113796e-08,4.2616532525130424e-10
6.224583741743118,3.814697265625e-06,5.119999885559082,-0.4487491226196294,-1.4120156492936076e-06,-1.8721812011790462e-07,1.396882609583372e-11
6.227718511829153,-7.67999267578125,10.240005493164062,-0.44187408447265675,3.476894789855578e-07,5.524259449884994e-08,-3.0095392844486923e-10
6.229926110710949,0.0,0.0,-0.4831243133544927,-1.4023889889358543e-06,-1.8660455225472106e-07,2.5816904170028465e-11
6.231982408789918,3.814697265625e-06,5.119999885559082,-0.47374969482421925,3.4921214364658226e-07,5.633305022456625e-08,-2.5285529225982373e-10
6.234117159619927,0.0,0.0,-0.47374969482421925,3.3930203358067956e-07,5.635365596390329e-08,6.024774013013712e-10
6.235837033716962,-15.3599853515625,20.480010986328125,-0.5049996948242192,3.330436584292329e-07,5.698856853086909e-08,6.302708355221398e-10
6.237749089719728,10.239984512329102,-20.48000717163086,-0.4674993133544927,-9.45036219945905e-07,5.5666589560132707e-08,-5.401190050768889e-10
6.239693739684299,10.239984512329102,-20.48000717163086,-0.48999935150146534,3.447055973992974e-07,5.824176696478389e-08,-3.4935754289477927e-10
6.241782532772049,3.814697265625e-06,5.119999885559082,-0.4837499237060552,-4.944345732837974e-07,-1.8161784964831895e-07,1.0485567969453768e-10
6.243833214743063,3.814697265625e-06,5.119999885559082,-0.4999995803833013,3.384327271760412e-07,5.931593705099658e-08,1.8781740052098428e-10
6.24591663479805,10.239995956420898,-5.120007514953613,-0.48874908447265675,3.314934815534798e-07,5.954680659669975e-08,4.996348890173863e-10
6.247951648663729,-10.239986419677734,15.360007286071777,-0.50749927520752,3.2573805697211355e-07,6.015719122842711e-08,4.432791911312961e-10
6.250011927681044,5.119996070861816,-5.120003700256348,-0.5062499618530278,3.2271694294649933e-07,6.045053169145831e-08,3.3665015219952465e-10
6.2519506816752255,10.239992141723633,-10.240007400512695,-0.5012498474121099,3.3527808795952296e-07,6.11152586316166e-08,-7.419540537512148e-10
6.254085222724825,5.119996070861816,-5.120003700256348,-0.5049996948242192,3.306565758975921e-07,6.192829005158274e-08,2.127874543234043e-10
6.2556760287843645,10.239992141723633,-10.240007400512695,-0.5212493515014653,3.400458865598921e-07,6.179431011332781e-08,-7.788731881674948e-10
6.257806770736352,-5.119983673095703,20.480003356933594,-0.4962497329711919,3.6595170627151674e-07,6.17423268067796e-08,-1.9128267858548043e-09
6.259605310624465,15.359991073608398,-10.240012168884277,-0.5087495422363286,3.534956363182573e-07,6.183816481097892e-08,3.8249725609063034e-10
6.2614974938333035,-7.62939453125e-06,-10.239999771118164,-0.5062499618530278,3.54760516074748e-07,6.086526127546676e-08,2.0160771663224608e-10
6.263377324678004,-15.359991073608398,10.240012168884277,-0.5224996185302739,3.4344208188485936e-07,6.065008051336918e-08,7.36576244442233e-10
6.265381288714707,-10.240007400512695,-10.239992141723633,-0.5062499618530278,3.356610136506788e-07,6.092798798817967e-08,6.907483474094533e-10
6.267232871847227,0.0,0.0,-0.5262494659423833,3.297649300293415e-07,6.17520470314048e-08,5.541916925366763e-10
6.269153471803293,15.359991073608398,-10.240012168884277,-0.5112491226196294,3.2699898611099343e-07,6.261424800868554e-08,4.2125636312562165e-10
6.271053485805169,-5.119999885559082,3.814697265625e-06,-0.5099998092651372,3.24342238400277e-07,6.300885502241726e-08,3.1382452192474375e-10
6.273146756691858,-5.119992256164551,10.24000358581543,-0.512499389648438,3.223835562948807e-07,6.34489936146565e-08,2.2393581433632903e-10
6.274849746841937,7.62939453125e-06,10.239999771118164,-0.5187497711181646,3.2714942221900856e-07,6.160240673125372e-08,2.611013627529246e-10
6.276829370763153,-7.62939453125e-06,-10.239999771118164,-0.5099998092651372,3.26949958662226e-07,6.202253644005395e-08,2.0898216490650157e-10
6.278842706698924,10.239986419677734,-15.360007286071777,-0.5212493515014653,3.263813255216519e-07,6.245124950510217e-08,1.5231371719437448e-10
6.281658066669479,-10.239986419677734,15.360007286071777,-0.5381246185302739,3.257373748510872e-07,6.288402687459893e-08,1.0683831597191329e-10
6.283810573630035,-3.814697265625e-06,-5.119999885559082,-0.48999935150146534,-5.871215194019896e-07,-4.1675770034999005e-07,-5.544656400680026e-10
6.285724967718124,0.0,0.0,-0.5049996948242192,3.3680319688755844e-07,6.359141480061226e-08,-2.1201906896806122e-10
6.287682646652684,-7.62939453125e-06,-10.239999771118164,-0.5062499618530278,3.531336005835328e-07,6.030387567079742e-08,-5.671250136174422e-10
6.289921237621456,10.239995956420898,-5.120007514953613,-0.5162492370605474,3.46627189173887e-07,6.04703416229313e-08,2.9576896487526483e-10
6.291668018791825,-15.3599853515625,20.480010986328125,-0.4975000000000005,3.5947215337728267e-07,5.901071631342347e-08,-3.271700688145529e-10
6.293517258716747,7.62939453125e-06,10.239999771118164,-0.5137496566772466,-5.524680091184564e-07,-4.2186781001873896e-07,-5.644862910436643e-10
6.295382867800072,0.0,0.0,-0.5024991607666021,3.6337456776891486e-07,5.786856149825326e-08,2.6417074083795455e-10
6.297304017702118,-10.239992141723633,10.240007400512695,-0.5099998092651372,3.555728369519784e-07,5.729521035391372e-08,6.135867369749803e-10
6.300101598724723,-12.799996376037598,5.1200103759765625,-0.5431247329711919,3.589742334497714e-07,5.592079332927824e-08,9.178897919515094e-11
6.302013005828485,10.239992141723633,-10.240007400512695,-0.4537492370605474,3.6755687915501767e-07,5.607336106550065e-08,-6.638793959012901e-10
6.304186493624002,-10.239992141723633,10.240007400512695,-0.5162492370605474,3.614566708165512e-07,5.526851509785047e-08,3.248375457509667e-10
6.3057859926484525,-7.62939453125e-06,-10.239999771118164,-0.4674993133544927,-8.565604758814516e-08,-1.852305331340176e-07,-9.024148095448936e-10
6.3078877257648855,1.52587890625e-05,20.479999542236328,-0.5112491226196294,-1.3572832813224522e-06,-1.8795867617882323e-07,-1.2860876807962995e-09
6.309601028682664,-5.119999885559082,3.814697265625e-06,-0.47249942779541065,3.9245500715878734e-07,5.225300014899403e-08,-5.023517157809465e-10
6.311415542848408,20.479984283447266,-20.48001480102539,-0.49249988555908253,3.749854897705518e-07,5.213541953708045e-08,9.788285737499791e-10
6.313382376683876,10.239984512329102,-20.48000717163086,-0.4962497329711919,-5.376887770580652e-07,-4.28200166879833e-07,-5.570187644465818e-10
6.315148723777384,0.0,0.0,-0.4799991226196294,3.7084072346260655e-07,5.173305339667422e-08,6.667862373355149e-10
6.317016786662862,-10.239992141723633,10.240007400512695,-0.48749977111816456,-1.3810465588903753e-06,-1.9144295038131531e-07,4.819469268113608e-10
6.319022383773699,10.239984512329102,-20.48000717163086,-0.48624950408935597,3.667198882340017e-07,5.0689152431004914e-08,3.399402981330013e-11
6.320773538667709,-7.62939453125e-06,-10.239999771118164,-0.4637494659423833,-1.3832649301548372e-06,-1.915633447424625e-07,2.628424145001418e-10
6.322633748641238,0.0,0.0,-0.47499996185302784,3.6454503060667776e-07,5.101054512124392e-08,-5.583428164257498e-11
6.324618233833462,-5.119999885559082,3.814697265625e-06,-0.481249389648438,-1.370982545267907e-06,-1.915885832204367e-07,-9.48524703225928e-10
6.326756447786465,5.119999885559082,-3.814697265625e-06,-0.5087495422363286,0.0005040724063292146,-0.0001700643333606422,0.00029916176572442055
6.328329793643206,20.480194091796875,20.479896545410156,-1.1977210617065435,0.0027738986536860466,-0.0032342940103262663,0.003673977218568325
6.330231040716171,20.480377197265625,10.239688873291016,-1.3467813110351567,0.0052185943350195885,-0.006700220052152872,0.007537124212831259
6.332128043752164,5.120752334594727,10.240032196044922,-1.2654891586303716,0.007309440523386002,-0.009897539392113686,0.011084115132689476
6.334083686815575,5.1212687492370605,10.24005126953125,-1.0933032608032232,0.009177110157907009,-0.012978804297745228,0.014458971098065376
6.335981676820666,20.479732513427734,-10.24153995513916,-1.1886964416503911,0.010729022324085236,-0.015758533030748367,0.017517779022455215
6.337913571624085,10.245523452758789,30.719322204589844,-1.0691075897216802,0.012097924947738647,-0.018411807715892792,0.02044692635536194
6.339817686704919,10.243395805358887,10.239099502563477,-1.0016522979736333,0.013241743668913841,-0.02083800546824932,0.023168768733739853
6.341804538620636,15.36187744140625,-0.0024042129516601562,-1.0207801437377935,0.014268146827816963,-0.023206926882267,0.025845259428024292
6.343683652812615,15.359336853027344,-10.24294376373291,-0.8959909057617192,0.015053503215312958,-0.025249145925045013,0.02823423594236374
6.3456884927582,5.122791290283203,4.76837158203125e-07,-0.9666162109375005,0.015784937888383865,-0.027304043993353844,0.030634883791208267
6.347557190805674,20.483341217041016,-0.0063686370849609375,-0.7838283157348638,0.01629479043185711,-0.029020683839917183,0.03274349868297577
6.349473931826651,10.243850708007812,-0.0025358200073242188,-0.8356423950195317,0.016743868589401245,-0.030676132068037987,0.03478670492768288
6.351608078693971,5.118717193603516,-10.240150451660156,-0.870688972473145,0.01715441793203354,-0.03238900750875473,0.036934319883584976
6.353261274751276,20.485095977783203,-0.0097198486328125,-0.5975814437866216,0.017282400280237198,-0.03346196562051773,0.038517266511917114
6.355221244739369,10.23121452331543,-20.483882904052734,-0.7851014709472661,0.017514459788799286,-0.0348103791475296,0.040283992886543274
6.357132934732363,10.254321098327637,10.235633850097656,-0.6799197769165044,0.017604820430278778,-0.03592384606599808,0.04192672297358513
6.359295943751931,0.024980545043945312,20.483976364135742,-0.7127328491210942,0.01768747717142105,-0.037117090076208115,0.043687790632247925
6.361314182635397,15.362842559814453,-5.130515098571777,-0.5993352508544927,0.017635084688663483,-0.038014091551303864,0.04524997994303703
6.3632670196238905,35.82678985595703,-20.51328468322754,-0.6014056777954107,0.01754266396164894,-0.038793377578258514,0.046678051352500916
6.365308870794252,-5.11073637008667,0.010940074920654297,-0.5848680114746099,0.017427224665880203,-0.03953995183110237,0.048102132976055145
6.367313667666167,5.123640060424805,-5.1210618019104,-0.516339836120606,0.017254184931516647,-0.04013966768980026,0.049438126385211945
6.369268926791847,-10.173652648925781,40.97950744628906,-0.5331845855712896,0.01704895868897438,-0.040629249066114426,0.050685398280620575
6.372151109622791,12.81176471710205,-0.013241767883300781,-0.639548835754395,0.016840029507875443,-0.04144752770662308,0.05240459740161896
6.374216679716483,15.381219863891602,5.101693153381348,-0.36208778381347706,0.016419395804405212,-0.04154064133763313,0.0535845123231411
6.375957393785939,15.33854866027832,-20.499446868896484,-0.3460689163208013,0.01611541584134102,-0.04165588691830635,0.05453994497656822
6.378019056748599,15.346129417419434,-15.381024360656738,-0.5106006240844732,0.015848927199840546,-0.04190487414598465,0.05562625080347061
6.379776721820235,0.01518145389854908,0.007399415131658316,-0.33376461029052784,0.015508633106946945,-0.04190787672996521,0.05650787055492401
6.381630465621129,15.396571159362793,10.216341972351074,-0.4341111755371099,0.01520567387342453,-0.041965045034885406,0.057405706495046616
6.383637073682621,15.332565307617188,-20.505075454711914,-0.383593139648438,0.014875050634145737,-0.04197798669338226,0.05834542214870453
6.3854580267798156,0.040566444396972656,10.248165130615234,-0.3389134979248052,0.014521580189466476,-0.04185476154088974,0.0591730922460556
6.387337673688307,10.233928680419922,-10.255778312683105,-0.3154817199707036,0.014176715165376663,-0.04174515977501869,0.059985533356666565
6.389150756644085,10.25881576538086,-0.016750335693359375,-0.3716760253906255,0.01382652297616005,-0.04156406968832016,0.060747627168893814
6.391208678716794,-10.18018913269043,15.395597457885742,-0.324572143554688,0.013467133045196533,-0.041390158236026764,0.06158612668514252
6.392855787649751,10.260509490966797,-0.018525123596191406,-0.2544923400878911,0.0131029412150383,-0.04106171429157257,0.06224185228347778
6.394838140811771,5.1701741218566895,10.234840393066406,-0.32662540435791065,0.012755785137414932,-0.04083893820643425,0.06298896670341492
6.396718517644331,15.351644515991211,-10.2756929397583,-0.2924523925781255,0.012376118451356888,-0.040483906865119934,0.06368156522512436
6.398578842636198,-5.065654754638672,10.265626907348633,-0.2135348892211919,0.012015435844659805,-0.040120646357536316,0.06434964388608932
6.400431073736399,0.02346447855234146,0.010099973529577255,-0.24753433227539112,0.011660106480121613,-0.03973136469721794,0.0649990439414978
6.402266668621451,0.05812644958496094,10.250249862670898,-0.24364429473877003,0.011296331882476807,-0.03931543976068497,0.06561043113470078
6.404141760664061,-10.109495162963867,30.765493392944336,-0.27742725372314503,0.010939296334981918,-0.038878753781318665,0.06622157245874405
6.406014966778457,5.109189987182617,-10.2474365234375,-0.17967182159423878,0.010582603514194489,-0.03840528428554535,0.06681939214468002
6.408078016713262,-20.301769256591797,41.046478271484375,-0.2057967758178716,0.010214272886514664,-0.0379021130502224,0.06746308505535126
6.409972890745848,0.10564041137695312,20.490968704223633,-0.19517570495605518,0.009837981313467026,-0.03733758255839348,0.06802543997764587
6.411947407759726,25.54625701904297,-20.570165634155273,-0.25222354888916065,0.00947725772857666,-0.036787789314985275,0.06859990209341049
6.413898186758161,10.310359001159668,10.209324836730957,-0.23891883850097706,0.009120676666498184,-0.036200374364852905,0.06915724277496338
6.415575615828857,10.182884216308594,-20.51131248474121,-0.09351306915283253,0.008799061179161072,-0.035626690834760666,0.06962911039590836
6.417437312658876,5.149495601654053,-0.01059865951538086,-0.2545924758911138,0.008476730436086655,-0.03508295118808746,0.07012297213077545
6.419528922764584,10.247303009033203,-5.154098033905029,-0.19471221923828175,0.008123844861984253,-0.03445843979716301,0.07066929340362549
6.421534539666027,-5.04115104675293,10.275774955749512,-0.12402873992919972,0.007773812860250473,-0.03378070518374443,0.07118542492389679
6.4234545337967575,20.316017150878906,-41.045108795166016,-0.10862785339355518,0.007447835057973862,-0.033119555562734604,0.07167237251996994
6.425336937652901,5.202541351318359,10.227022171020508,-0.20171886444091847,0.0071268752217292786,-0.032471492886543274,0.07212378084659576
6.427247286774218,5.1530070304870605,-0.013363361358642578,-0.13626819610595753,0.006816282868385315,-0.03181877359747887,0.07257679849863052
6.429283751640469,20.43338394165039,-15.453733444213867,-0.19086605072021534,0.006502270698547363,-0.03113207034766674,0.07305380702018738
6.431227706838399,-5.140291213989258,-10.199708938598633,-0.08206897735595753,0.0061961207538843155,-0.030429083853960037,0.07350407540798187
6.43322962266393,-10.036067962646484,30.788707733154297,-0.06968265533447315,0.00588563084602356,-0.029728300869464874,0.0739387646317482
6.435191844822839,5.155206680297852,-0.015955448150634766,-0.16499858856201222,0.005588401108980179,-0.029018493369221687,0.07436156272888184
6.437213240657002,5.126114368438721,-5.136545181274414,-0.16203361511230518,0.005297742784023285,-0.02830079011619091,0.0747934877872467
6.439127157675102,10.276522636413574,-0.04753303527832031,-0.08230453491210987,0.00502597913146019,-0.027591604739427567,0.0751989409327507
6.442040880676359,5.15687894821167,-0.018335819244384766,-0.19971614837646534,0.004653904587030411,-0.026695378124713898,0.07577412575483322
6.443991961656138,-0.026350975036621094,-10.226287841796875,0.0030226135253901276,0.004353724420070648,-0.025835281237959862,0.07615695893764496
6.445933367824182,10.344217300415039,10.1871976852417,-0.10731273651123097,0.004102487117052078,-0.025129444897174835,0.07653683423995972
6.447824774775654,-10.201117515563965,0.08103752136230469,-0.09932762145996143,0.0038682296872138977,-0.02443626895546913,0.0769050270318985
6.44969567283988,5.090267181396484,-10.260629653930664,-0.04360633850097706,0.0036253798753023148,-0.023757632821798325,0.07724028080701828
6.451571676647291,10.420366287231445,20.4226131439209,-0.14106517791748097,0.00339469313621521,-0.023082531988620758,0.07757642865180969
6.453603562666103,-10.19963264465332,0.0858469009399414,-0.06171852111816456,0.00315948948264122,-0.02237408421933651,0.07794025540351868
6.455581514630467,-10.125402450561523,10.327244758605957,-0.051074562072754404,0.0029376279562711716,-0.02165997214615345,0.07829371094703674
6.457490844652057,-10.048059463500977,20.568584442138672,-0.025566635131836435,0.0027161352336406708,-0.020972667261958122,0.07861234247684479
6.459390269825235,-0.03549003601074219,-10.225865364074707,-0.07394844055175831,0.0025102198123931885,-0.02030085027217865,0.07893028110265732
6.4613297446630895,10.281379699707031,-0.06448841094970703,-0.1026025390625005,0.0023081209510564804,-0.0196247436106205,0.07925553619861603
6.463279900839552,5.161938190460205,-0.026042461395263672,-0.07966667175293018,0.0021172650158405304,-0.018947388976812363,0.07958284020423889
6.465903803706169,15.278512954711914,-15.468827247619629,-0.1794620132446294,0.0018579941242933273,-0.018116453662514687,0.07998912781476974
6.4678288898430765,0.12688159942626953,10.253754615783691,-0.007689056396484872,0.0016673598438501358,-0.017386313527822495,0.08028795570135117
6.4705268307588995,10.282662391662598,-0.07199859619140625,-0.159899291992188,0.001434333622455597,-0.016552893444895744,0.08071137964725494
6.4724097738508135,-15.271527290344238,5.265262603759766,0.08465045928955028,0.0012684483081102371,-0.015848755836486816,0.08100626617670059
6.474445413798094,5.20818567276001,5.089231491088867,-0.11321884155273487,0.0010893773287534714,-0.015193505212664604,0.08129819482564926
6.4763974896632135,4.982547760009766,-20.510478973388672,-0.027880249023437997,0.0009276308119297028,-0.014550927095115185,0.08158070594072342
6.4783348818309605,-4.890474319458008,20.539453506469727,-0.07599502563476612,0.0007762433961033821,-0.013927548192441463,0.08186352998018265
6.480202024802566,0.04499705135822296,0.014171792194247246,-0.006363449096680185,0.0006376374512910843,-0.013329184614121914,0.08213798701763153
6.482090214733034,-10.099007606506348,10.349230766296387,-0.05199867248535206,0.000486019067466259,-0.012740257196128368,0.0823884978890419
6.4842573357746005,-5.074409484863281,0.06284523010253906,-0.023926315307617685,0.0003272406756877899,-0.012091959826648235,0.08268050849437714
6.48610049369745,0.14456748962402344,10.253646850585938,-0.041623649597168466,0.0002012336626648903,-0.011508920229971409,0.08293119072914124
6.488135273801163,-0.05487251281738281,-10.225363731384277,-0.013605651855469247,7.182545959949493e-05,-0.010911518707871437,0.08321176469326019
6.490225683664903,-0.005427837371826172,-5.105688095092773,-0.06873661041259815,-7.11437314748764e-05,-0.010299237444996834,0.08347495645284653
6.492276384728029,5.217966556549072,5.081664562225342,-0.0731225585937505,-0.0001995069906115532,-0.009701918810606003,0.08373763412237167
6.494323127670214,5.166041374206543,-0.03895378112792969,-0.06183868408203175,-0.0003179507330060005,-0.009118368849158287,0.08400387316942215
6.496309941634536,-4.857852935791016,20.546751022338867,-0.077562866210938,-0.00042286328971385956,-0.008558372035622597,0.08426559716463089
6.498367058811709,-15.257287979125977,5.298157691955566,0.07167476654052685,-0.0005469182506203651,-0.007996339350938797,0.08450869470834732
6.502009717747569,12.845276832580566,-0.12712764739990234,-0.257677612304688,-0.0007514040917158127,-0.007085267920047045,0.08495353907346725
6.504546113777906,-5.071983337402344,0.07160043716430664,0.09323066711425732,-0.0008501247502863407,-0.006385768298059702,0.08526555448770523
6.506464756792411,-14.961639404296875,30.906944274902344,0.052074851989745596,-0.0009188386611640453,-0.005875236354768276,0.0855075940489769
6.508294702740386,25.290807723999023,-30.999576568603516,-0.1282067871093755,-0.0010044318623840809,-0.00541477557271719,0.08571404218673706
6.51028129667975,-4.9524641036987305,10.313104629516602,-0.07174831390380909,-0.0010926243849098682,-0.00493124034255743,0.08594348281621933
6.512176219839603,0.047859422862529755,0.01396566815674305,0.03237480163574169,-0.001163979060947895,-0.004472559317946434,0.08616624027490616
6.513772524660453,9.917850494384766,-30.826932907104492,-0.024508056640625497,-0.0012161736376583576,-0.0040876115672290325,0.08635663241147995
6.51581512670964,30.640029907226562,-10.600090026855469,-0.20807510375976612,-0.001316834008321166,-0.0036245109513401985,0.08656318485736847
6.518683309666812,-0.016413211822509766,-5.105985164642334,-0.12885910034179737,-0.0014460537349805236,-0.0029927478171885014,0.08686453849077225
6.520630702842027,0.17743682861328125,10.253050804138184,0.061121406555175284,-0.0014906954020261765,-0.002553145866841078,0.08707261085510254
6.522929466795176,5.232761859893799,5.0675883293151855,-0.10508113861084034,-0.001566514139994979,-0.0020639155991375446,0.0873282179236412
6.524738815845922,-15.177736282348633,10.452048301696777,0.05365318298339794,-0.001616467023268342,-0.001681569847278297,0.08750937879085541
6.526750936638564,15.406365394592285,-0.18837547302246094,-0.11888557434082081,-0.0016807196661829948,-0.001270664157345891,0.08771849423646927
6.528771657729521,-15.174219131469727,10.457295417785645,0.006291809082030753,-0.0017332097049802542,-0.0008669197559356689,0.08793368190526962
6.530814620666206,0.18622779846191406,10.252581596374512,-0.03995662689209034,-0.0017758837202563882,-0.00046902731992304325,0.08815643936395645
6.532798474654555,-0.09199333190917969,-10.225545883178711,-0.004087028503418466,-0.0018367376178503036,-9.261444211006165e-05,0.08833982050418854
6.534751274622977,5.309237003326416,10.181507110595703,-0.06614833831787159,-0.0018867402104660869,0.00026887189596891403,0.08852729201316833
6.536670650821179,-10.047456741333008,10.395951271057129,-0.013571319580078622,-0.001926822355017066,0.0006156181916594505,0.08871740847826004
6.53869912866503,10.141434669494629,-10.37106704711914,-0.060452995300293466,-0.0019660405814647675,0.0009739964734762907,0.08892441540956497
6.540651948656887,-15.310444831848145,0.23410892486572266,0.016085090637206534,-0.0020131864584982395,0.0013078595511615276,0.0890987366437912
6.542498777620494,5.167454719543457,-0.061173439025878906,-0.022598800659180185,-0.002048035152256489,0.001615003915503621,0.08927002549171448
6.54447882482782,0.19845867156982422,10.252053260803223,-0.05967670440673878,-0.0020834996830672026,0.001939265290275216,0.08946029096841812
6.546241346746683,20.373210906982422,-10.530366897583008,-0.07784420013427784,-0.0021010409109294415,0.002216002671048045,0.0896340161561966
6.548068233765662,0.20156097412109375,10.251884460449219,-0.08334785461425831,-0.002141315024346113,0.002498598536476493,0.089789979159832
6.550165980821475,-0.10818862915039062,-10.225752830505371,-0.01944690704345753,-0.0021825674921274185,0.0028184244874864817,0.08997690677642822
6.551927910652012,10.443922996520996,10.094205856323242,-0.082964477539063,-0.00219614221714437,0.003069272032007575,0.09013873338699341
6.553731385851279,-5.0714497566223145,0.09265756607055664,0.045946540832519034,-0.002212447114288807,0.0033267722465097904,0.09031025320291519
6.555738835828379,0.3694114685058594,20.490283966064453,-0.10871654510498097,-0.002251190599054098,0.003608663799241185,0.09047739952802658
6.557483543641865,-4.746431350708008,20.571636199951172,-0.028879699707031747,-0.002263521309942007,0.0038355498109012842,0.09062810987234116
6.559336521662772,25.31514549255371,-20.87565803527832,-0.10152584075927784,-0.002282753586769104,0.004080857150256634,0.09079471230506897
6.561218791641295,5.166369915008545,-0.07040834426879883,-0.10354286193847706,-0.0022937580943107605,0.00432074349373579,0.09096929430961609
6.563584747724235,0.04707910120487213,0.012652341276407242,-0.06262165069580128,-0.0023378883488476276,0.004623721353709698,0.0911574587225914
6.5657401527278125,0.04732859134674072,0.012688914313912392,0.009878578186034659,-0.0023483573459088802,0.004870105069130659,0.0913369208574295
6.567599119618535,10.285449981689453,-0.15959835052490234,-0.08540206909179737,-0.0023472048342227936,0.005073213949799538,0.09149837493896484
6.569575221743435,4.992368698120117,-10.312948226928711,-0.0006261444091801849,-0.002354277763515711,0.00529483100399375,0.09167696535587311
6.571595015702769,5.253735065460205,5.043686866760254,-0.10897689819335987,-0.0023738923482596874,0.005510922055691481,0.09183104336261749
6.57352921878919,-0.1309223175048828,-10.226015090942383,-0.008763847351074716,-0.002383096609264612,0.005706628784537315,0.09198608249425888
6.5754984866362065,15.045162200927734,-20.73383331298828,-0.03912502288818409,-0.0023869266733527184,0.005903513170778751,0.09215117245912552
6.577351377811283,-5.072720527648926,0.10297632217407227,-0.025885162353516122,-0.002381083555519581,0.006076841149479151,0.09231220930814743
6.58082275884226,-4.888910293579102,10.342692375183105,-0.16466384887695362,-0.002445924561470747,0.006454892922192812,0.09257293492555618
6.58286940981634,-5.072327613830566,0.10561800003051758,0.12018245697021435,-0.002406771294772625,0.006570311263203621,0.09273174405097961
6.58455247269012,10.284418106079102,-0.1760234832763672,-0.035602149963379404,-0.0023902058601379395,0.0066951969638466835,0.09287130832672119
6.586438936647028,-15.121338844299316,10.535276412963867,0.02439731597900341,-0.0023884200491011143,0.006856498774141073,0.0930343046784401
6.588397612795234,9.900211334228516,-20.65625762939453,-0.06963306427002003,-0.002403991762548685,0.007009982131421566,0.09316689521074295
6.590192307718098,0.43274879455566406,20.488296508789062,-0.04946285247802784,-0.0024028425104916096,0.007135942578315735,0.09329542517662048
6.593129155691713,-2.612675905227661,-5.058204650878906,-0.11472278594970753,-0.0024297572672367096,0.007393695879727602,0.09352156519889832
6.595113881630823,5.263934135437012,5.031847953796387,0.04838127136230419,-0.002389294095337391,0.0074805570766329765,0.09367936849594116
6.596994980704039,0.4452686309814453,20.487844467163086,-0.056607780456543466,-0.0023914892226457596,0.007595450151711702,0.09380906075239182
6.599041803739965,0.24692535400390625,10.24968147277832,-0.0708041763305669,-0.002391332760453224,0.007728039287030697,0.09395898878574371
6.600761737674475,-0.15832901000976562,-10.226188659667969,0.07553905487060497,-0.00237226951867342,0.007812664844095707,0.09409034252166748
6.602737851673737,5.3687920570373535,10.146612167358398,-0.16526466369628956,-0.002363460138440132,0.007935980334877968,0.09424871951341629
6.604627664666623,-0.16257858276367188,-10.226273536682129,0.029192390441894034,-0.0023682275786995888,0.008030918426811695,0.09436726570129395
6.606539076659828,10.700601577758789,20.277881622314453,-0.12865978240966847,-0.002365066669881344,0.008128342218697071,0.09449559450149536
6.608427291736007,-10.193405151367188,0.2225933074951172,0.016034545898437003,-0.002356965094804764,0.008217466995120049,0.09462966024875641
6.610433860681951,0.044252801686525345,0.01142892986536026,-0.007606086730957529,-0.002344159409403801,0.008314887061715126,0.09477969259023666
6.6123332276474684,4.947934150695801,-10.333853721618652,-0.043910560607910654,-0.002342299558222294,0.008389794267714024,0.09489729255437851
6.614297736668959,-9.760126113891602,20.70354461669922,0.008686485290526846,-0.00233590230345726,0.008472705259919167,0.09502777457237244
6.616149706766009,0.04355646297335625,0.011218560859560966,-0.058853683471680185,-0.0023208605125546455,0.00853738933801651,0.09515762329101562
6.618179883807898,10.170806884765625,-5.328218936920166,-0.0578027343750005,-0.0023054582998156548,0.008620129898190498,0.09530781954526901
6.620237274793908,-4.852959632873535,10.359994888305664,-0.05144363403320362,-0.00230517890304327,0.008689776062965393,0.0954299047589302
6.622207409702241,10.280731201171875,-0.21344280242919922,-0.04879241943359425,-0.002295411191880703,0.00874556414783001,0.09555565565824509
6.624139091698453,4.93552303314209,-10.339622497558594,0.00881523132324169,-0.002277965657413006,0.008799928240478039,0.09568685293197632
6.626188138732687,15.28445816040039,-5.450473785400391,-0.13822608947753956,-0.0022584740072488785,0.008861659094691277,0.09583402425050735
6.627927000634372,15.62891960144043,9.903127670288086,-0.07669597625732472,-0.0022484436631202698,0.008886775933206081,0.09593208134174347
6.62980522075668,-9.962818145751953,10.480255126953125,-0.005745468139648935,-0.0022445358335971832,0.008937741629779339,0.09604687243700027
6.631823976757005,5.277944564819336,5.0124969482421875,-0.057060775756836435,-0.002231224440038204,0.008988060057163239,0.09617836773395538
6.633675558725372,14.926513671875,-20.817485809326172,-0.04882961273193409,-0.002206043340265751,0.009014137089252472,0.09630543738603592
6.635696140816435,0.2797231674194336,10.247953414916992,-0.056104240417480966,-0.0022078538313508034,0.009057605639100075,0.09641548246145248
6.637553301639855,-9.955546379089355,10.487563133239746,0.024982872009276846,-0.00219136755913496,0.009076462127268314,0.09652449935674667
6.639458741759881,10.278731346130371,-0.23090362548828125,-0.0759616470336919,-0.0021765567362308502,0.009106065146625042,0.09664441645145416
6.641432146774605,10.035039901733398,-10.470009803771973,-0.06865364074707081,-0.002156759612262249,0.009133435785770416,0.09677620232105255
6.643193834694102,5.159958362579346,-0.11204338073730469,-0.022852478027344247,-0.0021462347358465195,0.009139600209891796,0.09686781466007233
6.645080793648958,0.28821372985839844,10.247503280639648,-0.052124557495117685,-0.0021382058039307594,0.009162388741970062,0.09697481244802475
6.647055348847061,14.898426055908203,-20.83705711364746,-0.03135543823242237,-0.002122117206454277,0.00918125081807375,0.09709484130144119
6.648891070624813,-5.579367637634277,-20.33799934387207,-0.00371223449707081,-0.0020954282954335213,0.00918499007821083,0.09721309691667557
6.650985253741965,5.158994674682617,-0.11615467071533203,-0.06498390197753956,-0.0020973514765501022,0.009206913411617279,0.09731895476579666
6.652537469752133,10.27741813659668,-0.24418354034423828,-0.037234840393066904,-0.0020734285935759544,0.009180565364658833,0.09740304201841354
6.654350322671235,0.29665660858154297,10.247060775756836,-0.044403610229492685,-0.0020622825250029564,0.009198461659252644,0.09750951081514359
6.656206202693284,-14.798463821411133,20.87102508544922,0.011575164794921378,-0.002040366642177105,0.009201336652040482,0.09762494266033173
6.658045712625608,9.756641387939453,-20.723243713378906,-0.04950958251953175,-0.0020368294790387154,0.009198661893606186,0.09771140664815903
6.659861814696342,-15.053022384643555,10.639618873596191,0.05542034149169872,-0.0020258696749806404,0.00919254682958126,0.0978049486875534
6.6627432107925415,-2.5199501514434814,0.07615089416503906,-0.12791305541992237,-0.0020211236551404,0.00923989713191986,0.09796972572803497
6.664686089847237,0.03986344113945961,0.010140441358089447,0.07491439819335888,-0.001972210593521595,0.00917556881904602,0.09808708727359772
6.666734887752682,-5.078923225402832,0.14437103271484375,-0.00592475891113331,-0.0019632726907730103,0.009167086333036423,0.09818779677152634
6.668637757655233,-9.926692008972168,10.517013549804688,-0.01967769622802784,-0.001942576840519905,0.009144216775894165,0.09828970581293106
6.670727000804618,-4.533607482910156,20.61904525756836,0.007263603210448721,-0.001921313814818859,0.009135648608207703,0.09841100126504898
6.672389014624059,19.962512969970703,-21.01166343688965,-0.0653567886352544,-0.0018852166831493378,0.009095344692468643,0.09851276129484177
6.674301547696814,4.880348205566406,-10.364642143249512,-0.03752571105957081,-0.0018888190388679504,0.009087393060326576,0.09859418123960495
6.67615641374141,4.600002288818359,-20.60179901123047,-0.04240852355957081,-0.0018772194162011147,0.00906169693917036,0.09868136793375015
6.678018981823698,9.994354248046875,-10.506546974182129,-0.03357082366943409,-0.0018599415197968483,0.009038316085934639,0.09877700358629227
6.679838879732415,-15.033864974975586,10.668819427490234,0.05433506011962841,-0.0018363790586590767,0.00901049841195345,0.09887754917144775
6.681684670737013,5.1558074951171875,-0.1323103904724121,-0.0847964859008794,-0.0018334472551941872,0.008984259329736233,0.09895330667495728
6.683502628700808,-0.2474956512451172,-10.226304054260254,0.07733386993408153,-0.001821155659854412,0.008954504504799843,0.09903626143932343
6.685475357808173,4.867440223693848,-10.37035083770752,-0.15849834442138722,-0.0018057161942124367,0.008930741809308529,0.0991351380944252
6.687320351833478,-20.723281860351562,-9.647106170654297,0.1763576889038081,-0.00177810899913311,0.008891623467206955,0.0992346927523613
6.6893894106615335,20.21704864501953,-10.809747695922852,-0.13401466369628956,-0.0017770417034626007,0.008865928277373314,0.09931845217943192
6.691191839752719,14.803901672363281,-20.902359008789062,-0.032181320190430185,-0.0017572836950421333,0.008816732093691826,0.09939935803413391
6.6929388316348195,-10.789104461669922,-20.166748046875,0.052782478332519034,-0.001737142913043499,0.008779818192124367,0.09948533028364182
6.69460174581036,-9.011016845703125,41.24911117553711,-0.04054981231689503,-0.0017146961763501167,0.00874282605946064,0.09957326203584671
6.696547454688698,0.3356046676635742,10.244970321655273,-0.04096942901611378,-0.0017153127118945122,0.008716242387890816,0.09964513778686523
6.698377781780437,-5.682771682739258,-20.31142234802246,0.02186626434326122,-0.0017021773383021355,0.008670181967318058,0.09972098469734192
6.700201680650935,0.6417655944824219,20.480327606201172,-0.030470428466797372,-0.0016839932650327682,0.008629778400063515,0.09980463236570358
6.70227722870186,15.541614532470703,4.669705390930176,-0.10935550689697315,-0.0016639642417430878,0.008596155792474747,0.0999089926481247
6.704009837703779,15.082763671875,-10.686030387878418,-0.007991371154785654,-0.0016515562310814857,0.008537206798791885,0.0999717116355896
6.706112843705341,5.307806491851807,4.9724273681640625,-0.07280403137207081,-0.001642335206270218,0.00850601028650999,0.10005933791399002
6.707674169680104,0.03581870719790459,0.009137467481195927,-0.012569007873535654,-0.0016148611903190613,0.0084396256133914,0.10012982785701752
6.709521073848009,-9.575185775756836,20.791786193847656,-0.021886405944824716,-0.0015961900353431702,0.008409255184233189,0.10022149235010147
6.711416760692373,0.3498497009277344,10.244281768798828,0.029328765869140128,-0.0018459893763065338,0.008352572098374367,0.09992474317550659
6.713390880730003,-9.883865356445312,10.560225486755371,-0.07522159576416065,-0.0023644547909498215,0.008284326642751694,0.09921946376562119
6.715072900755331,-10.517486572265625,-9.908198356628418,0.07192844390869091,-0.002953586168587208,0.008202353492379189,0.09834928065538406
6.716924497624859,-10.199978828430176,0.32856178283691406,-0.007463989257812997,-0.0038031572476029396,0.008130135014653206,0.09708130359649658
6.718784453812987,-5.403987407684326,-10.065391540527344,0.022106590270995596,-0.004802721552550793,0.008045701310038567,0.09550930559635162
6.7207286157645285,10.593027114868164,9.920173645019531,-0.041308937072754404,-0.006006933748722076,0.007957770489156246,0.09355834126472473
6.722534449771047,5.4768877029418945,10.080772399902344,-0.09557491302490284,-0.007212258875370026,0.007864072918891907,0.09149865061044693
6.724342124769464,-10.20018196105957,0.3351144790649414,0.03320449829101513,-0.008527323603630066,0.0077767022885382175,0.08920150250196457
6.726351119810715,0.034151580184698105,0.008117873221635818,-0.07131248474121143,-0.010123539716005325,0.007689082063734531,0.08636347204446793
6.72822972969152,4.821663856506348,-10.391731262207031,0.042904319763183096,-0.01161656342446804,0.007594185881316662,0.08351855725049973
6.730063419789076,5.151125907897949,-0.1581578254699707,-0.10023456573486378,-0.01287827268242836,0.007507653441280127,0.08090883493423462
6.732646028744057,-0.13314008712768555,-5.109988212585449,-0.0694003677368169,-0.014469863846898079,0.0074269650503993034,0.07749395817518234
6.734721180750057,-4.748096466064453,10.409189224243164,0.03521102905273388,-0.015372434630990028,0.007313663139939308,0.07489220052957535
6.736618810798973,10.268050193786621,-0.3299579620361328,-0.03869491577148487,-0.01608382537961006,0.007226480171084404,0.07267528772354126
6.738550432724878,-5.083734512329102,0.17542695999145508,-0.006431159973145029,-0.016701525077223778,0.007147466763854027,0.07056202739477158
6.74041815684177,-5.083841323852539,0.1757645606994629,-0.006493148803711435,-0.017156777903437614,0.007069889456033707,0.06864467263221741
6.744230612646788,-2.2696242332458496,7.7664899826049805,-0.1815505599975591,-0.018169453367590904,0.007001485675573349,0.06501717120409012
6.746361078694463,0.2051372528076172,5.122213840484619,0.14799922943115185,-0.018045492470264435,0.00684905331581831,0.063149593770504
6.748778103850782,-4.567218780517578,15.52824592590332,-0.043152389526367685,-0.0182030126452446,0.006770635023713112,0.0612296499311924
6.7514711858239025,-7.123492240905762,15.61509895324707,-0.049617347717285654,-0.018230099231004715,0.006683685816824436,0.0592675656080246
6.753593048779294,-4.910353183746338,5.294643878936768,0.10682910919189403,-0.018048610538244247,0.006584862247109413,0.05779868736863136
6.755656555760652,-4.910252094268799,5.294809341430664,-0.009291229248047372,-0.017897386103868484,0.00651077926158905,0.056478437036275864
6.757640354800969,5.1491594314575195,-0.1720108985900879,-0.043078956604004404,-0.01769472286105156,0.006439598277211189,0.05529658868908882
6.759637251729146,5.149065017700195,-0.17290210723876953,-0.02801948547363331,-0.017458727583289146,0.006373101845383644,0.054188258945941925
6.761697717709467,10.442025184631348,4.767047882080078,-0.030144271850586435,-0.01720583252608776,0.006307011470198631,0.05309010297060013
6.76370090781711,19.616334915161133,-26.28938102722168,-0.07095199584960987,-0.0169008020311594,0.0062389858067035675,0.052095916122198105
6.76571386680007,0.20887231826782227,5.118565082550049,-0.02272754669189503,-0.01657087169587612,0.006174540147185326,0.05116626247763634
6.767494181636721,-1.0340251922607422,-30.700157165527344,0.031359138488769034,-0.016214769333600998,0.006108840927481651,0.05039719119668007
6.769413994625211,0.031400442123413086,0.0010452913120388985,-0.046300468444824716,-0.015889739617705345,0.006054331548511982,0.04960005730390549
6.771419298835099,8.836261749267578,-41.29155349731445,-0.010137138366699716,-0.015517877414822578,0.005994692444801331,0.04882310703396797
6.773342391708866,15.023592948913574,-10.770560264587402,-0.06867176055908253,-0.015117410570383072,0.005932772532105446,0.04812819883227348
6.775095476768911,-1.0456466674804688,-30.700916290283203,0.08023303985595653,-0.014725340530276299,0.005873708985745907,0.04753568768501282
6.776972971623763,-13.879974365234375,41.47452163696289,-0.08187919616699268,-0.014357817359268665,0.005821277387440205,0.046921372413635254
6.778819012688473,5.147996425628662,-0.18073511123657227,0.04502147674560497,-0.01395992562174797,0.005765542387962341,0.04635624215006828
6.7807347637135535,4.062406539916992,-30.882266998291016,-0.059586105346680185,-0.013554118573665619,0.005711529403924942,0.04580901190638542
6.782664317637682,-4.360776901245117,20.647619247436523,0.010494651794433096,-0.0131297055631876,0.00565524585545063,0.045295048505067825
6.784557485720143,15.380799293518066,-0.5462722778320312,-0.09062725067138722,-0.012721411883831024,0.005599689669907093,0.04479805752635002
6.786423610756174,0.3951139450073242,10.232207298278809,0.06642478942871044,-0.012315027415752411,0.005545638035982847,0.04434126242995262
6.788537992630154,4.964384078979492,-5.3009185791015625,-0.07121234893798878,-0.011882205493748188,0.0054940031841397285,0.043861038982868195
6.790208429796621,-9.471006393432617,20.8311767578125,0.03307956695556591,-0.011463752947747707,0.005432124715298414,0.04350586235523224
6.792132627684623,5.513786792755127,10.04804801940918,-0.028722343444824716,-0.011077758856117725,0.0053865802474319935,0.04311473295092583
6.793984544696286,4.779299736022949,-10.419386863708496,0.01930850982665966,-0.010670317336916924,0.005333398003131151,0.042763251811265945
6.795897515723482,5.515043258666992,10.046791076660156,-0.08071571350097706,-0.010264065116643906,0.005283088888972998,0.042425598949193954
6.797799858730286,-9.834047317504883,10.60012435913086,0.011591377258300284,-0.00985395535826683,0.005231370683759451,0.04211333394050598
6.79963117162697,-0.3399314880371094,-10.236039161682129,0.08951324462890575,-0.009470919147133827,0.005179212894290686,0.04181349277496338
6.801480161724612,9.891935348510742,-10.607012748718262,-0.10310798645019581,-0.009094792418181896,0.005130708683282137,0.041531987488269806
6.8034758877474815,5.14626932144165,-0.18890094757080078,-0.026843605041504404,-0.008701510727405548,0.005082299467176199,0.04125016927719116
6.806402245769277,-7.832056522369385,-4.840145587921143,-0.06610160827636768,-0.008185924030840397,0.005033328663557768,0.04087527468800545
6.808359351707622,15.192455291748047,-5.6806840896606445,0.013680877685546378,-0.0077383932657539845,0.004952354356646538,0.04062512889504433
6.8110957278404385,2.7749154567718506,5.019229888916016,-0.050768432617188,-0.007275891024619341,0.004905028268694878,0.04031244292855263
6.814417162677273,2.3991141319274902,-5.214432716369629,-0.07226234436035206,-0.006695663556456566,0.004836338106542826,0.03997480869293213
6.816402722848579,0.21798086166381836,5.112499713897705,0.12647193908691357,-0.006256361026316881,0.004746062681078911,0.03979078680276871
6.818303783657029,-10.581769943237305,-9.85930061340332,0.04720443725585888,-0.00592546071857214,0.004696470219641924,0.039611175656318665
6.82018159981817,-4.330385208129883,20.651090621948242,0.02288669586181591,-0.005607641767710447,0.004649732727557421,0.03944764286279678
6.822407141793519,5.145069599151611,-0.19402313232421875,-0.08139854431152393,-0.005256639327853918,0.004604351706802845,0.03927048295736313
6.82412824081257,9.881606101989746,-10.617530822753906,0.02134746551513622,-0.0049526272341609,0.004548176191747189,0.03914368897676468
6.825962032657117,0.028669849038124084,-0.0044888686388731,0.008707466125487784,-0.004680476151406765,0.004506670404225588,0.03899681568145752
6.827772981720045,14.99608039855957,-10.809857368469238,-0.08865505218505909,-0.004408448934555054,0.004462377168238163,0.0388626754283905
6.829692795639858,-14.555980682373047,21.03464126586914,0.04601425170898388,-0.004131019581109285,0.00441952608525753,0.038731899112463
6.831719029694796,-4.321569442749023,20.65251350402832,0.03749603271484325,-0.00384312029927969,0.004374593961983919,0.038605526089668274
6.833421491784975,10.261128425598145,-0.3886404037475586,-0.013521728515625497,-0.0035980739630758762,0.004325910471379757,0.0384940430521965
6.835319681791589,0.028153307735919952,-0.004835271276533604,-0.03004127502441456,-0.003348512575030327,0.004286547191441059,0.03838048502802849
6.837261522654444,5.1444597244262695,-0.19757795333862305,-0.03232437133789112,-0.0030940244905650616,0.004242347553372383,0.03827400505542755
6.839241150766611,0.4142627716064453,10.227739334106445,0.02028507232665966,-0.0028366479091346264,0.004197794012725353,0.03817515820264816
6.841241504764184,15.37679672241211,-0.5853509902954102,-0.10164028167724659,-0.0025956216268241405,0.004151736386120319,0.03806796669960022
6.843126844847575,0.028066279366612434,-0.005093693733215332,0.05120986938476513,-0.0023678308352828026,0.004106359556317329,0.03797595575451851
6.845108702778816,0.8046493530273438,20.46015167236328,-0.004083213806152841,-0.002136696595698595,0.004064331762492657,0.037888407707214355
6.847155218711123,5.143996715545654,-0.19974327087402344,-0.029620704650879404,-0.001902746967971325,0.00402010977268219,0.037806879729032516
6.849227273836732,10.0652494430542,-5.511480808258057,-0.013771591186523935,-0.0016853292472660542,0.003974521066993475,0.03771299123764038
6.852619071723893,2.3895998001098633,-5.219243049621582,-0.15508132934570362,-0.0013519013300538063,0.003931446000933647,0.037580497562885284
6.854455345775932,0.027941666543483734,-0.005347924306988716,0.1662096405029292,-0.0011536013334989548,0.0038537816144526005,0.037515174597501755
6.85648280964233,1.0092220306396484,25.57590675354004,-0.05151325225830128,-0.0009565530344843864,0.0038146553561091423,0.037453677505254745
6.858458850765601,-5.08870267868042,0.19144153594970703,0.07431930541992138,-0.000778700690716505,0.003771523479372263,0.037382014095783234
6.860244336770847,-10.205168724060059,0.38892269134521484,0.006110610961913565,-0.000616907374933362,0.003729049116373062,0.0373237170279026
6.862108480650932,5.143336772918701,-0.20278024673461914,-0.024328765869141122,-0.0004560390952974558,0.003691901918500662,0.03726930916309357
6.863947899779305,0.4228353500366211,10.227011680603027,0.028174819946288565,-0.0002996711991727352,0.003652776824310422,0.037221312522888184
6.865947445621714,5.935768127441406,20.261165618896484,-0.09406906127929737,-0.00014741555787622929,0.0036147404462099075,0.03715331107378006
6.867926250677556,-19.047348022460938,36.601951599121094,0.11858982086181591,1.6693957149982452e-06,0.0035738369915634394,0.0370931513607502
6.8696824896615,0.02696295827627182,-0.005340993404388428,0.013712348937987784,0.00013015675358474255,0.0035329360980540514,0.03704528138041496
6.871648521628231,10.258965492248535,-0.4038658142089844,-0.06201797485351612,0.000273700337857008,0.0034978813491761684,0.036998044699430466
6.873522721696645,-15.321416854858398,0.5935573577880859,0.05970615386962841,0.0003975129220634699,0.0034581758081912994,0.03694448620080948
6.875571758719161,0.22665071487426758,5.110793590545654,-0.03531032562255909,0.0005320576019585133,0.0034214300103485584,0.03689287602901459
6.87745645781979,-4.688518524169922,10.42719841003418,0.060920181274413565,0.0006511707324534655,0.0033808820880949497,0.03685089573264122
6.879486667690799,-4.688011169433594,10.427608489990234,-0.016626892089844247,0.0007819111924618483,0.0033442832063883543,0.036811791360378265
6.882069134619087,10.057188034057617,-5.523775100708008,-0.07385784149169972,0.0009282960090786219,0.0033050887286663055,0.03674813732504845
6.884207510622218,-10.003808975219727,5.514041423797607,0.07245296478271435,0.0010405429638922215,0.0032554883509874344,0.03670230880379677
6.886167178628966,-4.281583786010742,20.660837173461914,0.007567825317382315,0.0011443132534623146,0.0032138300593942404,0.03666643053293228
6.887716399738565,-10.205512046813965,0.3993663787841797,0.07264274597167919,0.001222966704517603,0.003177366219460964,0.03664165362715721
6.889660154702142,10.66345500946045,9.821466445922852,-0.0595727539062505,0.0013155147898942232,0.003149004653096199,0.036595430225133896
6.891567686805502,-10.20563793182373,0.40086936950683594,0.048766555786132315,0.0014001927338540554,0.003112827893346548,0.03655528277158737
6.8936289036646485,0.02612539380788803,-0.00513395294547081,-0.00878578186035206,0.0014943360583856702,0.003078223206102848,0.03651779145002365
6.895353970816359,9.44302749633789,-20.876352310180664,-0.02846675872802784,0.0015638432232663035,0.0030402736738324165,0.036490462720394135
6.897381820715964,5.550095558166504,10.02268123626709,-0.040751991271973154,0.0016466135857626796,0.0030091532971709967,0.03644793853163719
6.899218077771366,-9.796939849853516,10.635682106018066,0.01646274566650341,0.0017110587796196342,0.0029737967997789383,0.03641413152217865
6.901255634846166,9.643202781677246,-15.762377738952637,-0.026013908386230966,0.0017917411169037223,0.0029406659305095673,0.036382127553224564
6.903007925720885,0.4362955093383789,10.226763725280762,0.04283660888671825,0.0018505994230508804,0.002905097557231784,0.03635846823453903
6.904885801719502,-5.090014934539795,0.20054388046264648,0.021033706665038565,0.001911943661980331,0.0028748265467584133,0.036321040242910385
6.90696755470708,5.553300380706787,10.020923614501953,-0.04452377319335987,0.0019787605851888657,0.0028421753086149693,0.03628527745604515
6.908649155637249,9.845056533813477,-10.649003028869629,0.008923950195312003,0.0020218794234097004,0.0028072206769138575,0.03626010939478874
6.910535840783268,-0.3876323699951172,-10.23647689819336,-0.07151084899902393,0.0020832717418670654,0.0027787566650658846,0.03623642399907112
6.912426435621455,0.02583504095673561,-0.0048531657084822655,0.08496517181396435,0.002131097251549363,0.0027470544446259737,0.036201361566782
6.9159972397610545,0.4401073455810547,10.226945877075195,-0.20617347717285206,0.0022549473214894533,0.002715759677812457,0.03614886850118637
6.918618363793939,7.38728141784668,-7.990461826324463,0.08705944061279247,0.002294447273015976,0.0026572290807962418,0.0361177884042263
6.920652992790565,0.02556386962532997,-0.004665279760956764,0.06496566772460888,0.0023294726852327585,0.0026147852186113596,0.03609949350357056
6.922768073622137,5.141003131866455,-0.21339130401611328,-0.037096557617188,0.002371295355260372,0.0025821086019277573,0.036068156361579895
6.92494227970019,-4.253501892089844,20.66756820678711,0.03180831909179638,0.002413452137261629,0.002549205906689167,0.03604159504175186
6.928911166731268,-0.3951892852783203,-10.235748291015625,-0.18608718872070362,0.002532531274482608,0.002515176311135292,0.03600749000906944
6.9327895748429,-0.08017992973327637,-2.5621895790100098,0.02222770690917919,0.0025978642515838146,0.00245389505289495,0.03598729521036148
6.934940600767732,0.44756507873535156,10.22693157196045,0.1596187973022456,0.0025711918715387583,0.0023959807585924864,0.035953957587480545
6.93671874771826,29.027790069580078,-42.197654724121094,-0.019734916687012216,0.0025816869456321,0.002364248502999544,0.03593222796916962
6.938724838662893,0.4482259750366211,10.227075576782227,-0.09297615051269581,0.0026121290866285563,0.002338745864108205,0.03591235354542732
6.940612637670711,0.44927406311035156,10.227027893066406,0.06322425842285107,0.002632297109812498,0.0023099679965525866,0.03589729592204094
6.942577307811007,0.44982433319091797,10.227068901062012,0.01442283630371044,0.0026393397711217403,0.0022828092332929373,0.035856783390045166
6.944421261781827,4.289134979248047,-20.679155349731445,-0.035629806518555185,0.0026419428177177906,0.0022546742111444473,0.0358235239982605
6.946344236843288,0.45096397399902344,10.227130889892578,-0.048175392150879404,0.0026550597976893187,0.0022298956755548716,0.03579353913664818
6.948105768766254,-4.236640930175781,20.671655654907227,0.11407894134521435,0.0026598135009407997,0.002202630275860429,0.03576979786157608
6.9498976927716285,8.972856521606445,-31.124713897705078,-0.058759269714355966,0.002662884071469307,0.0021787672303617,0.035737864673137665
6.9516778097022325,10.255659103393555,-0.4321250915527344,-0.03342681884765675,0.0026691730599850416,0.002154767047613859,0.03571015223860741
6.953569418750703,15.800049781799316,9.58377456665039,-0.03589778900146534,0.002678427379578352,0.0021312993485480547,0.035684872418642044
6.9556179526261985,18.982452392578125,-36.67157745361328,-0.09916263580322315,0.0026935322675853968,0.002105816500261426,0.03566198796033859
6.958118239650503,5.355218887329102,4.8964715003967285,-0.04275947570800831,0.002705007093027234,0.002078960184007883,0.035620830953121185
6.96002231282182,0.24027490615844727,5.111774444580078,0.05134147644042919,0.002689255867153406,0.0020465708803385496,0.03559397533535957
6.961900383699685,10.255348205566406,-0.43559741973876953,-0.011951026916504404,0.0026919636875391006,0.002022041007876396,0.035571955144405365
6.963987121824175,5.572505474090576,10.010931015014648,-0.037705001831055185,0.0027041221037507057,0.001998832682147622,0.035551998764276505
6.9656318058259785,-0.8421440124511719,-20.465194702148438,0.052280845642089346,0.002686969004571438,0.0019730194471776485,0.035523511469364166
6.967797790654004,9.603748321533203,-15.783746719360352,-0.09812694549560597,0.002697373740375042,0.0019524120725691319,0.03549173101782799
6.969814527779818,4.922268390655518,-5.336223602294922,-0.004022178649902841,0.0026922740507870913,0.0019261885900050402,0.035466551780700684
6.97173524973914,0.8954238891601562,20.45809555053711,0.021081390380858878,0.0026891615707427263,0.0019017111044377089,0.03544669225811958
6.973794198827818,14.279504776000977,-26.234508514404297,-0.03410011291503956,0.0026827887631952763,0.0018796375952661037,0.03541339561343193
6.975925521692261,10.473312377929688,4.675016403198242,-0.046745834350586435,0.002678907010704279,0.001854750793427229,0.03538418188691139
6.9779278978239745,14.494495391845703,-21.121173858642578,-0.03132015228271534,0.0026701875030994415,0.0018308607395738363,0.03536117076873779
6.980832776753232,-7.429612636566162,5.441323280334473,-0.07060104370117237,0.002691082190722227,0.0018078458961099386,0.03533564507961273
6.982883530668914,5.359395980834961,4.892371654510498,0.09716838836669872,0.0026528146117925644,0.0017746766097843647,0.03530218079686165
6.98469362873584,5.5794901847839355,10.007383346557617,-0.02804523468017628,0.002638019621372223,0.0017515909858047962,0.03527737036347389
6.986596702830866,-15.321725845336914,0.6584005355834961,0.027724685668944815,0.002632955089211464,0.0017320949118584394,0.03525536507368088
6.989918415667489,7.69649600982666,-0.33446216583251953,-0.13011222839355518,0.0026597674004733562,0.0017119303811341524,0.035226259380578995
6.991742515703663,4.69661808013916,-10.454702377319336,0.10053104400634716,0.0026036002673208714,0.001675963867455721,0.0351947546005249
6.993570381775498,0.023969680070877075,-0.0028237132355570793,0.03247112274169872,0.002589959418401122,0.001656973734498024,0.03516864776611328
6.995447302702814,5.583135604858398,10.005542755126953,-0.01322608947753956,0.002582341432571411,0.0016383377369493246,0.03514564782381058
6.997339175781235,4.249307632446289,-20.685779571533203,-0.04728179931640675,0.0025726098101586103,0.0016193382907658815,0.03512613847851753
6.99925311980769,-0.4214801788330078,-10.233004570007324,0.08201068878173778,0.002553212456405163,0.001599491573870182,0.035090845078229904
7.0011324267834425,-4.199214935302734,20.681015014648438,-0.056749877929688,0.0025351089425385,0.0015812108758836985,0.03506056219339371
7.003048540791497,-5.538186550140381,-10.009414672851562,0.01954502105712841,0.002522255526855588,0.0015622938517481089,0.03503383323550224
7.004964153748006,10.253851890563965,-0.4500560760498047,-0.04362159729003956,0.002509213052690029,0.0015436799731105566,0.03501100838184357
7.006912270793691,10.253877639770508,-0.450714111328125,-0.007337150573730966,0.002489753533154726,0.0015254304744303226,0.03497694805264473
7.008780071744695,-4.642477035522461,10.452144622802734,0.031333389282226065,0.002471029991284013,0.0015076696872711182,0.03494846448302269
7.010692598763853,19.13509750366211,-31.591922760009766,-0.055051383972168466,0.002456622663885355,0.001489419722929597,0.03492334485054016
7.012552179628983,-9.306039810180664,20.908069610595703,0.008699836730956534,0.002443839330226183,0.0014714945573359728,0.03490249812602997
7.014394802739844,10.253622055053711,-0.4532146453857422,-0.01971584320068409,0.0024233744479715824,0.00145474704913795,0.0348702110350132
7.01627435372211,0.4751167297363281,10.22775936126709,0.005012931823729971,0.0024065636098384857,0.0014385813847184181,0.034841421991586685
7.018228973727673,9.80119800567627,-10.684494972229004,-0.04089981079101612,0.002392007503658533,0.0014222005847841501,0.03481558710336685
7.020280377706513,10.253421783447266,-0.45517444610595703,-0.030874786376953622,0.002379392506554723,0.0014047292061150074,0.03479267284274101
7.022430834826082,0.25034570693969727,5.1128315925598145,0.0030445480346674714,0.0023563827853649855,0.0013870056718587875,0.034755028784275055
7.0245651956647635,9.57149887084961,-15.80146598815918,-0.04120307922363331,0.002335550729185343,0.001369033707305789,0.03472290560603142
7.026613869704306,5.366003036499023,4.885266304016113,0.01074546813964794,0.002316033001989126,0.0013508761767297983,0.034696631133556366
7.028666089754552,0.2513432502746582,5.112921237945557,-0.008277473449707529,0.0023017730563879013,0.0013343519531190395,0.03467457368969917
7.030604331754148,9.796479225158691,-10.688423156738281,-0.025426445007324716,0.0022767991758883,0.001317107817158103,0.03463999554514885
7.0335208957549185,9.566349029541016,-15.804216384887695,-0.09701400756835987,0.0022677527740597725,0.0013019759207963943,0.03459661453962326
7.035486157750711,5.138327598571777,-0.2310624122619629,0.06528514862060497,0.0022289413027465343,0.001278371550142765,0.034571412950754166
7.037484822794795,-5.091557502746582,0.22772741317749023,0.01839488983154247,0.002215742599219084,0.0012631863355636597,0.034550465643405914
7.039340857649222,0.48303985595703125,10.22789478302002,0.021984519958495596,0.0021907901391386986,0.0012481668964028358,0.03451826050877571
7.0412654667161405,9.792303085327148,-10.691793441772461,-0.07004219055175831,0.0021726470440626144,0.0012337320949882269,0.034489139914512634
7.043169514741749,-5.552613735198975,-10.000770568847656,0.043926658630370596,0.002155026886612177,0.001219889149069786,0.03446413576602936
7.0450734556652606,25.597084045410156,-1.156057357788086,-0.04688125610351612,0.002140163443982601,0.0012057661078870296,0.0344427265226841
7.046944677829742,-10.206416130065918,0.4608020782470703,0.005441131591796378,0.0021149907261133194,0.0011919441167265177,0.03440694883465767
7.048853420652449,-5.09160852432251,0.22995948791503906,0.015819969177245596,0.0020928264129906893,0.0011786834802478552,0.03437475115060806
7.050816883798689,0.02304989844560623,-0.0015421397984027863,-0.02377754211425831,0.002075266558676958,0.0011647525243461132,0.034345727413892746
7.052752623800188,9.32369613647461,-20.924896240234375,0.01987022399902294,0.0020583197474479675,0.0011518255341798067,0.034320954233407974
7.054692794801667,-5.0917816162109375,0.2311105728149414,-0.04921680450439503,0.0020321342162787914,0.0011383534874767065,0.034284573048353195
7.05668627563864,-9.740449905395508,10.693804740905762,0.038217964172362784,0.0020109929610043764,0.001125396927818656,0.034251708537340164
7.059167721774429,4.9042205810546875,-5.34941291809082,-0.05598407745361378,0.001998596591874957,0.001111677847802639,0.03421681374311447
7.061154043767601,-0.21058177947998047,-5.116020679473877,0.05481761932372997,0.001971113495528698,0.0010957331396639347,0.03419283404946327
7.063119707629085,-4.155492782592773,20.69132423400879,0.003778877258300284,0.0019468009704723954,0.001082603819668293,0.03415675833821297
7.0650574488099664,14.429313659667969,-21.162967681884766,-0.013987121582031747,0.0019248350290581584,0.00107054493855685,0.03412545844912529
7.066995822824538,-4.622254371643066,10.462711334228516,0.0009092712402338776,0.0019076981116086245,0.0010585045674815774,0.03409809246659279
7.068917686818168,4.667387008666992,-10.465471267700195,-0.008413848876953622,0.0018929819343611598,0.0010464885272085667,0.03407460078597069
7.070928803645074,10.01665210723877,-5.586575984954834,-0.011512336730957529,0.0018663691589608788,0.001034848508425057,0.03403446450829506
7.07295368774794,4.901534080505371,-5.351459980010986,-0.0682712173461919,0.001843480160459876,0.0010226503945887089,0.03399873524904251
7.075118518667296,0.022909697145223618,-0.0011054472997784615,0.026223602294921378,0.0018252439331263304,0.0010115901241078973,0.033965419977903366
7.077216699719429,-0.4501380920410156,-10.23013687133789,0.013712348937987784,0.0018071423983201385,0.0009981420589610934,0.033937495201826096
7.079174105776474,10.962301254272461,14.868844032287598,-0.04014068603515675,0.0017789287958294153,0.0009861394064500928,0.03389916941523552
7.081191149773076,19.057674407958984,-31.63677978515625,-0.018724975585937997,0.0017579726409167051,0.0009751843754202127,0.03386435657739639
7.083109048660845,0.4978322982788086,10.228004455566406,0.007381858825683096,0.0017388531705364585,0.0009641442447900772,0.03383515030145645
7.085135605651885,-0.45305347442626953,-10.229877471923828,-0.027400550842285654,0.001724199508316815,0.0009535116842016578,0.03380837291479111
7.087006450630724,5.137202739715576,-0.23910093307495117,-0.0006518936157231536,0.0016984752146527171,0.0009429429192095995,0.0337703675031662
7.08894001878798,4.660098075866699,-10.468287467956543,-0.006701049804687997,0.0016781034646555781,0.0009326727595180273,0.03373546525835991
7.090684054652229,4.65941047668457,-10.468530654907227,-0.03041225433349659,0.0016591105377301574,0.0009217499755322933,0.03370729088783264
7.092634203843772,0.02267499640583992,-0.0008196467533707619,-0.0037761306762700286,0.001646463293582201,0.0009130868129432201,0.03367961570620537
7.094736758619547,-0.21682310104370117,-5.115182876586914,0.016366424560546378,0.0016223086277022958,0.0009028416825458407,0.03363675996661186
7.096653084736317,5.137022495269775,-0.2406139373779297,-0.008102951049805185,0.0015990226529538631,0.0008912637131288648,0.03360193595290184
7.098557566758245,4.656473159790039,-10.46963882446289,-0.07149749755859425,0.001581897959113121,0.0008809588616713881,0.03357129171490669
7.100458207773045,6.099111557006836,20.21617889404297,0.03991550445556591,0.0015672652516514063,0.0008707719389349222,0.033544350415468216
7.102518375730142,8.806011199951172,-31.16838836669922,-0.03865009307861378,0.001544170780107379,0.0008609268115833402,0.033501505851745605
7.104465928627178,-9.723546981811523,10.71037483215332,0.05811447143554638,0.0015218807384371758,0.000850170967169106,0.03346533700823784
7.107392729725689,-4.608578681945801,10.469680786132812,-0.09748130798339893,0.0015113423578441143,0.0008399874204769731,0.0334189273416996
7.109683384653181,5.136921405792236,-0.24266481399536133,0.04196018218994091,0.0014868851285427809,0.0008246322395280004,0.03338763490319252
7.111461209831759,4.6521100997924805,-10.471460342407227,0.04250949859619091,0.0014587680343538523,0.0008121078135445714,0.033352307975292206
7.113335372647271,4.165859222412109,-20.70020866394043,-0.028139648437500497,0.0014427596470341086,0.0008029671153053641,0.03331928700208664
7.11533005675301,-5.577819347381592,-9.98590087890625,0.013559761047362784,0.001429838826879859,0.0007929025450721383,0.03328810632228851
7.117574566742405,4.893170356750488,-5.358107089996338,-0.042691764831543466,0.001418155967257917,0.0007820682367309928,0.03325766324996948
7.119354204740375,9.763456344604492,-10.716301918029785,0.018432083129882315,0.0013902740320190787,0.0007696531247347593,0.033218853175640106
7.121249143732712,-4.603584289550781,10.471992492675781,0.021010818481444815,0.0013723412994295359,0.0007601873949170113,0.033181942999362946
7.12332029780373,-9.71718978881836,10.716747283935547,-0.03732162475585987,0.0013570338487625122,0.0007498858030885458,0.033145971596241
7.125236724736169,0.022507932037115097,-0.0003728475421667099,0.0387243652343745,0.0013404390774667263,0.0007384830387309194,0.033116415143013
7.1271452128421515,9.270450592041016,-20.94698143005371,-0.01189094543457081,0.0013194860657677054,0.0007277370896190405,0.03307604044675827
7.12900185585022,-5.091800689697266,0.2450428009033203,-0.02834278106689503,0.001301244250498712,0.0007173692574724555,0.033040717244148254
7.130885316757485,5.136587142944336,-0.24599027633666992,0.0407995605468745,0.0012870464706793427,0.0007063207449391484,0.03300861641764641
7.132787288632244,19.49458885192871,-21.440649032592773,-0.0650363540649419,0.001274086069315672,0.000695715076290071,0.032979778945446014
7.13465216383338,-10.698446273803711,-9.735758781433105,0.004146995544433096,0.0012540523894131184,0.0006845422321930528,0.032939162105321884
7.136597090633586,0.022424746304750443,-0.00023815780878067017,0.03622478485107372,0.0012362953275442123,0.000673752510920167,0.032901085913181305
7.138518460793421,0.022266730666160583,-0.00021506007760763168,-0.027525482177734872,0.0012217486510053277,0.0006630554562434554,0.03286734223365784
7.140289753675461,9.261299133300781,-20.950836181640625,-0.008963165283203622,0.0012088681105524302,0.0006523821502923965,0.032839495688676834
7.142278940649703,5.136244297027588,-0.2477741241455078,-0.036656913757324716,0.0011906090658158064,0.0006406756583601236,0.03279658406972885
7.143979410640895,-9.214086532592773,20.95159912109375,0.03879875183105419,0.001172208460047841,0.0006298602093011141,0.03276324272155762
7.145841401768848,-10.702072143554688,-9.731698989868164,0.012951316833495596,0.001161213731393218,0.0006199037889018655,0.03273042291402817
7.147748637711629,10.250198364257812,-0.4971475601196289,-0.013250885009766122,0.0011499570682644844,0.0006085098721086979,0.03270033746957779
7.149776067817584,6.131633758544922,20.206846237182617,-0.002442893981934091,0.001130719669163227,0.0005964558804407716,0.03265662118792534
7.151586188701913,-0.47609806060791016,-10.227943420410156,-0.015224037170410654,0.0011126764584332705,0.0005847035208716989,0.03262133523821831
7.1536563786212355,-9.457185745239258,15.8406982421875,-0.032196578979492685,0.0011018036166206002,0.0005728307878598571,0.03258536756038666
7.156466046813875,7.692957878112793,-0.3749809265136719,-0.05552822113037159,0.0010961032239720225,0.0005583110032603145,0.03254330903291702
7.158525379840285,-5.09151554107666,0.2503046989440918,0.07155460357665966,0.0010679054539650679,0.0005433043697848916,0.032499656081199646
7.16058482369408,5.136027812957764,-0.2506427764892578,-0.02034717559814503,0.0010531640145927668,0.0005300807533785701,0.0324612557888031
7.162486257730052,13.857906341552734,-31.435951232910156,-0.011221466064453622,0.0010402651969343424,0.0005176952108740807,0.03242955729365349
7.164350748760626,10.249893188476562,-0.5025081634521484,0.01185173034667919,0.0010333878453820944,0.0005054449429735541,0.0324019230902195
7.166244083782658,10.249650955200195,-0.5031156539916992,-0.07813793182373097,0.0010128768626600504,0.0004934605676680803,0.032359637320041656
7.168278828728944,9.99787712097168,-5.617568016052246,0.008736076354979971,0.0009982283227145672,0.00048111192882061005,0.03231870383024216
7.170010345755145,0.5264997482299805,10.227666854858398,-0.037517127990723154,0.000984890153631568,0.0004689116030931473,0.0322871059179306
7.171919025713578,-9.700252532958984,10.732707977294922,0.046798171997069815,0.000976425304543227,0.00045723275979980826,0.032255955040454865
7.173856936627999,-5.091651439666748,0.25298404693603516,-0.010987815856934091,0.0009588998509570956,0.00044500501826405525,0.03221239894628525
7.1756881647743285,-4.585238456726074,10.48077392578125,0.036457481384276846,0.00094459333922714,0.0004323216271586716,0.03217504546046257
7.178598852828145,0.5291385650634766,10.2275972366333,-0.10384803771972706,0.0009354783687740564,0.0004162894329056144,0.032123226672410965
7.180505577707663,0.53021240234375,10.22758674621582,0.09613365173339794,0.0009197146282531321,0.0004005907685495913,0.03209280967712402
7.182409109780565,-30.151487350463867,11.753082275390625,0.03271812438964794,0.00090350944083184,0.0003876910777762532,0.03205253183841705
7.184278409695253,-4.582398414611816,10.482110977172852,0.03011363983154247,0.0008918175008147955,0.0003752593183889985,0.032016780227422714
7.186113598756492,15.872635841369629,9.462961196899414,-0.07594448089599659,0.0008809797000139952,0.0003625894314609468,0.0319850817322731
7.188062996836379,-9.694759368896484,10.737874984741211,0.04532665252685497,0.0008775892201811075,0.0003497022553347051,0.03195500001311302
7.191250031813979,2.8342864513397217,4.986035346984863,-0.13149314880371143,0.0008584502502344549,0.00033077370608225465,0.03188453987240791
7.193758841836825,0.022203518077731133,0.0002943947911262512,0.05997604370117138,0.0008377667400054634,0.00031221931567415595,0.031835563480854034
7.195824635680765,9.992818832397461,-5.626147747039795,0.012730064392089346,0.000824726652354002,0.00029741483740508556,0.0318002849817276
7.197712849825621,0.022155676037073135,0.00032544322311878204,0.04497570037841747,0.0008180054719559848,0.0002838422078639269,0.03177176043391228
7.199657204793766,10.763213157653809,9.713288307189941,-0.03574996948242237,0.0008016590727493167,0.0002703279023990035,0.03172769024968147
7.201596008846536,-5.606273174285889,-9.969324111938477,-0.009519157409668466,0.0007906400132924318,0.0002568088239058852,0.03168788552284241
7.20352926873602,-4.060699462890625,20.71209716796875,0.007126274108886221,0.0007805448258295655,0.00024376553483307362,0.031651999801397324
7.2054158127866685,5.135498523712158,-0.25762081146240234,-0.020250854492187997,0.0007730904035270214,0.00023007870186120272,0.03162046894431114
7.207342023728415,0.022054746747016907,0.0003922833129763603,0.009975852966308096,0.0007572376634925604,0.00021743675461038947,0.0315764881670475
7.2092017566319555,9.731748580932617,-10.743743896484375,-0.007637557983398935,0.0007445306400768459,0.00020375067833811045,0.031537849456071854
7.211149932816625,11.284507751464844,19.936359405517578,-0.05989986419677784,0.0007367582875303924,0.00019028689712285995,0.031501222401857376
7.213027187623084,4.098604202270508,-20.712526321411133,0.015479507446288565,0.0007299301796592772,0.0001765717170201242,0.03146931529045105
7.214928341796622,15.881244659423828,9.448686599731445,-0.05604511260986378,0.000714258523657918,0.00016365840565413237,0.03142489120364189
7.216712949797511,-5.0913405418396,0.26026487350463867,0.02643913269042919,0.0007018967880867422,0.00015025876928120852,0.03138677403330803
7.218610699754208,5.135354995727539,-0.2596611976623535,-0.026486930847168466,0.0006937914295122027,0.00013766140909865499,0.03134992718696594
7.2206789397168905,-0.49898242950439453,-10.22626781463623,-0.039609489440918466,0.0006876407423987985,0.00012256635818630457,0.03131375089287758
7.222728694789112,5.917718887329102,15.079771041870117,0.003501358032226065,0.0006732121692039073,0.00010758609278127551,0.03126632794737816
7.225144644733518,-4.830221176147461,5.375000476837158,-0.02191310882568409,0.0006607194081880152,9.087350917980075e-05,0.031216399744153023
7.227080572629347,-4.829729080200195,5.375307083129883,0.054328384399413565,0.0006508559454232454,7.7440170571208e-05,0.031180215999484062
7.229035762837157,5.13524866104126,-0.2612628936767578,-0.03148036956787159,0.0006474110996350646,6.25388347543776e-05,0.03114759363234043
7.230970850680023,0.5461854934692383,10.227106094360352,-0.0017552947998051849,0.0006332152988761663,4.910922143608332e-05,0.031103266403079033
7.232975846622139,3.823232650756836,-25.828216552734375,0.0016302490234370026,0.0006224254029802978,3.4755212254822254e-05,0.031061626970767975
7.235011525684968,-5.091282844543457,0.26328611373901367,-0.008570251464844247,0.0006163326324895024,2.038775710389018e-05,0.03102339804172516
7.237056027632207,-14.528450012207031,16.12944793701172,0.05543369293212841,0.0006110564572736621,5.661800969392061e-06,0.03098892606794834
7.239112577633932,6.188663482666016,20.19007110595703,-0.05128913879394581,0.0005980173009447753,-9.05158231034875e-06,0.030940981581807137
7.2415277326945215,4.871376991271973,-5.376376152038574,-0.033076820373535654,0.0005861676181666553,-2.6242341846227646e-05,0.030890563502907753
7.243390147807077,0.2861328125,5.113783359527588,0.03157371520996044,0.0005785689572803676,-3.949715755879879e-05,0.030855238437652588
7.245329396799207,10.248272895812988,-0.5281219482421875,-0.04293018341064503,0.0005743461078964174,-5.317607428878546e-05,0.03082231618463993
7.247263636672869,0.022030167281627655,0.0006171911954879761,0.009975852966308096,0.0005613391986116767,-6.740211392752826e-05,0.030776366591453552
7.24917556764558,-0.5079498291015625,-10.225650787353516,-0.009431419372559091,0.000551538250874728,-8.092724601738155e-05,0.030734926462173462
7.251194815849885,0.8178586959838867,15.340003967285156,-0.004057464599609872,0.0005440883687697351,-9.535436402074993e-05,0.03069518879055977
7.254016117658466,0.021855097264051437,0.0006432486698031425,-0.07064968109130909,0.0005421543028205633,-0.00011610481305979192,0.030646279454231262
7.255958757828921,4.8692498207092285,-5.3784499168396,0.07570880889892528,0.0005259642493911088,-0.0001281610457226634,0.030600655823946
7.2579213108401746,-1.043386459350586,-20.451608657836914,-0.025000152587891122,0.0005177081329748034,-0.00014285225188359618,0.030559329316020012
7.259900893783197,24.520660400390625,-21.78476333618164,-0.03851943969726612,0.000511321472004056,-0.00015671149594709277,0.030521465465426445
7.261742520844564,0.021971946582198143,0.0006828336045145988,-0.02377468109130909,0.0005080043338239193,-0.00016941360081546009,0.03048946149647236
7.263685969635844,4.600592613220215,-10.492586135864258,0.002932014465331534,0.0004961499944329262,-0.00018341111717745662,0.030442114919424057
7.26555048674345,-4.020843505859375,20.720247268676758,0.013825836181640128,0.0004861875204369426,-0.00019653851632028818,0.030400453135371208
7.267468967707828,-10.203991889953613,0.536351203918457,-0.009592590332031747,0.000479059643112123,-0.00020968407625332475,0.030361296609044075
7.2694206847809255,24.514415740966797,-21.791810989379883,-0.019712028503418466,0.00047587312292307615,-0.00022411931422539055,0.03032502718269825
7.271168909734115,0.5587854385375977,10.226637840270996,-0.025732574462891122,0.00046466494677588344,-0.00023533306375611573,0.030283009633421898
7.272984972689301,9.173233032226562,-20.98841094970703,-0.004037437438965341,0.0004574393096845597,-0.0002491024206392467,0.03024294786155224
7.274934768676758,5.1349968910217285,-0.26824045181274414,0.0010017776489252839,0.00045107226469554007,-0.0002623872715048492,0.030203573405742645
7.276833078823984,6.211966514587402,20.183120727539062,-0.04921871185302784,0.0004490456194616854,-0.00027554325060918927,0.03016858734190464
7.278662778669968,0.022063860669732094,0.0007471898570656776,-2.437591552784113e-05,0.0004370893875602633,-0.00028833444230258465,0.030124269425868988
7.280675961636007,5.674649715423584,9.956656455993652,-0.021009979248047372,0.0004301744338590652,-0.00030229848925955594,0.0300796739757061
7.282455118838698,0.5623531341552734,10.2264986038208,-0.0007854080200200286,0.0004237394023220986,-0.00031381036387756467,0.030043426901102066
7.284303378779441,-0.5187559127807617,-10.224937438964844,0.0032438659667963776,0.0004212658095639199,-0.0003260286175645888,0.030009081587195396
7.286188299767673,10.247745513916016,-0.5406494140625,-0.019255218505859872,0.00041098074871115386,-0.0003401722351554781,0.029963115230202675
7.288158682640642,4.050769805908203,-20.721525192260742,-0.046204147338867685,0.000402934878366068,-0.0003536667500156909,0.029919080436229706
7.2899727777112275,-4.5481157302856445,10.497692108154297,0.010677757263183096,0.00039773102616891265,-0.00036596314748749137,0.029881823807954788
7.291874142829329,10.247746467590332,-0.5423603057861328,0.013224067687987784,0.0003945869975723326,-0.00037857817369513214,0.029846208170056343
7.293873626738787,0.022081023082137108,0.0007981164380908012,-0.016274032592773935,0.0003844256862066686,-0.0003923221374861896,0.029797052964568138
7.29577257973142,4.590500831604004,-10.496891021728516,-0.020716247558594247,0.00037725214497186244,-0.0004046048561576754,0.02975418046116829
7.297599646728486,1.6567668914794922,30.67728042602539,-0.03374439239502003,0.0003727151488419622,-0.00041646132012829185,0.02971629612147808
7.299495567800477,-10.74871826171875,-9.679162979125977,0.047586860656737784,0.0003700404486153275,-0.0004299032734706998,0.029680345207452774
7.301475036656484,10.247538566589355,-0.5452566146850586,-0.02806526184082081,0.0003613808657974005,-0.00044359490857459605,0.0296316035091877
7.303580635692924,9.70082950592041,-10.771283149719238,-0.013478813171387216,0.0003532464033924043,-0.00045717073953710496,0.029584236443042755
7.30559214274399,0.022073566913604736,0.000827297568321228,-0.04127460479736378,0.00034894043346866965,-0.0004702898731920868,0.029542893171310425
7.307705683633685,9.42557144165039,-15.885111808776855,-0.004920539855957529,0.00034849511575885117,-0.00048463448183611035,0.02950354665517807
7.309740123804659,10.521738052368164,4.564919471740723,-0.025415954589844247,0.0003391313657630235,-0.0004968540742993355,0.029454538598656654
7.31173940282315,-0.25237607955932617,-5.11177921295166,0.007291259765624503,0.00033318763598799706,-0.0005106190219521523,0.029410552233457565
7.313808595761657,15.085062980651855,-5.936453819274902,-0.057355461120605966,0.00032912782626226544,-0.0005232227267697453,0.029369080439209938
7.316141569754109,-9.10200309753418,21.001737594604492,-0.00245338439941456,0.0003298728261142969,-0.0005388720892369747,0.02932698465883732
7.318206004798412,4.583769798278809,-10.499842643737793,0.028066101074218253,0.0003202045918442309,-0.0005512541392818093,0.029276704415678978
7.32015884667635,19.093225479125977,-26.665334701538086,-0.03214412689209034,0.0003137590829282999,-0.0005635693669319153,0.02923331968486309
7.321864723693579,10.247368812561035,-0.5513381958007812,-0.003167686462402841,0.00031106668757274747,-0.0005740050692111254,0.029198363423347473
7.324665794847533,-4.814015865325928,5.389919757843018,-0.11703163146972706,0.00031200284138321877,-0.0005946408491581678,0.029147179797291756
7.326579445740208,-5.643619060516357,-9.947319984436035,0.10499519348144482,0.0003002684679813683,-0.000603152671828866,0.029098574072122574
7.328575894702226,-14.76102066040039,11.057183265686035,0.005065383911132315,0.0002941153943538666,-0.0006166441598907113,0.029052667319774628
7.330465094652027,10.247316360473633,-0.5538692474365234,0.011779251098632315,0.0002899502287618816,-0.0006276351632550359,0.029012683779001236
7.332361185690388,-0.5330839157104492,-10.224034309387207,-0.030325469970703622,0.00028981961077079177,-0.000639788166154176,0.028975890949368477
7.334263327764347,11.359010696411133,19.894817352294922,-0.008909759521484872,0.0002791134174913168,-0.0006514879642054439,0.028927620500326157
7.336169589776546,0.022274382412433624,0.000906502828001976,-0.028775749206543466,0.0002736049937084317,-0.0006628584815189242,0.02888302318751812
7.338047467637807,-6.203996658325195,-20.170263290405273,0.044781150817870596,0.00027109088841825724,-0.0006735663628205657,0.02884247712790966
7.339920454658568,9.689474105834961,-10.781455993652344,-0.07355934143066456,0.00026827427791431546,-0.0006856935797259212,0.02880530245602131
7.341735555790365,14.801519393920898,-11.060994148254395,0.011049690246581534,0.00026017450727522373,-0.0006956382421776652,0.028760336339473724
7.343626941787079,-5.089962482452393,0.2802438735961914,0.015366973876952628,0.0002563617890700698,-0.0007075762841850519,0.028717074543237686
7.345859169727191,-18.74917221069336,31.793668746948242,-0.0038972473144536224,0.00025323242880403996,-0.000722247757948935,0.028670430183410645
7.347543721785769,-0.5372886657714844,-10.223752975463867,0.03972381591796825,0.00025254691718146205,-0.0007292386144399643,0.028637828305363655
7.34942439571023,9.686598777770996,-10.784079551696777,-0.07485252380371143,0.0002455387148074806,-0.0007419621106237173,0.028590558096766472
7.351436383789405,15.920305252075195,9.384164810180664,-0.022295532226562997,0.0002398055512458086,-0.0007534752949140966,0.028543895110487938
7.353366216644645,9.685538291931152,-10.785147666931152,-0.01986652374267628,0.0002370726433582604,-0.0007647055899724364,0.028502613306045532
7.355264926794916,-4.527754783630371,10.506525993347168,0.005643310546874503,0.00023692852118983865,-0.0007758610881865025,0.02846531756222248
7.357122192624956,3.4470558166503906,-30.953948974609375,0.02385753631591747,0.000230952980928123,-0.0007852922426536679,0.02842012606561184
7.359099630732089,10.810044288635254,9.66228199005127,-0.06695610046386768,0.00022605923004448414,-0.0007979539223015308,0.028375796973705292
7.3612367967143655,-8.792451858520508,26.125898361206055,0.027681770324706534,0.000224440882448107,-0.0008098582038655877,0.028331918641924858
7.363816050812602,5.134551525115967,-0.28131580352783203,-0.09549575805664112,0.0002291052951477468,-0.0008264904608950019,0.028284253552556038
7.3659055137541145,0.5879068374633789,10.225358009338379,0.0926784896850581,0.00021999148884788156,-0.0008357932092621922,0.028233781456947327
7.3678713836707175,5.134679794311523,-0.2818894386291504,-0.04051357269287159,0.0002160222502425313,-0.0008453369955532253,0.028190486133098602
7.369813526747748,-9.0692138671875,21.015884399414062,0.01509422302246044,0.0002151120570488274,-0.0008561081485822797,0.02815120294690132
7.37174480361864,9.113311767578125,-21.014446258544922,0.0010923767089838776,0.00021721638040617108,-0.0008662199252285063,0.02811536192893982
7.373708553845063,5.13466215133667,-0.2827186584472656,-0.049289283752441904,0.00020850723376497626,-0.0008773879380896688,0.0280650332570076
7.375521750655025,-5.089381694793701,0.28492307662963867,0.04674571990966747,0.000203320465516299,-0.0008858347428031266,0.02802194282412529
7.377399716759101,6.271493911743164,20.165176391601562,-0.0652185058593755,0.0002001302782446146,-0.0008963847649283707,0.027980664744973183
7.379365774802864,0.5917177200317383,10.22515869140625,0.018889846801757315,0.00019952707225456834,-0.0009077194845303893,0.027940798550844193
7.381161777768284,9.107826232910156,-21.016822814941406,-0.011436042785645029,0.00019274052465334535,-0.0009161166381090879,0.02789451740682125
7.383013977669179,-3.949289321899414,20.734241485595703,0.0008425140380854401,0.000187438796274364,-0.0009257351630367339,0.02785029634833336
7.384898029733449,14.21767807006836,-21.303058624267578,-0.037030754089355966,0.00018530600937083364,-0.0009356126538477838,0.02780856564640999
7.386782439658418,4.563636779785156,-10.508626937866211,-0.01949745178222706,0.00018499838188290596,-0.0009457479463890195,0.027769971638917923
7.388638776727021,6.278114318847656,20.163238525390625,0.02467960357665966,0.00017867254791781306,-0.0009548421367071569,0.027722248807549477
7.3905891086906195,-15.313263893127441,0.8592615127563477,-0.0007520294189458099,0.0001741029554978013,-0.0009653455344960093,0.027675829827785492
7.392568309791386,5.707420825958252,9.938589096069336,-0.051744995117188,0.00017116533126682043,-0.0009753640042617917,0.02763225883245468
7.394463564734906,15.358709335327148,-0.8589181900024414,-0.02560859680175831,0.00017157313413918018,-0.0009846854954957962,0.027593716979026794
7.39732386963442,7.690578460693359,-0.42957067489624023,-0.08971363067627003,0.00016168085858225822,-0.0010042020585387945,0.027521032840013504
7.399219756713137,0.31034374237060547,5.112937927246094,0.07253307342529247,0.00015775347128510475,-0.0010076783364638686,0.027476312592625618
7.401047685649246,0.5981130599975586,10.224843978881836,0.043836059570312,0.00015772099141031504,-0.0010160371894016862,0.027436932548880577
7.402919058687985,-5.089108943939209,0.28882360458374023,-0.0406213378906255,0.0001589945750311017,-0.001025171484798193,0.02739965356886387
7.4048224438447505,10.246780395507812,-0.5751743316650391,0.023644866943358878,0.00015178252942860126,-0.0010339284781366587,0.027350010350346565
7.406734719639644,-6.242488861083984,-20.158130645751953,-0.044551429748535654,0.00014667247887700796,-0.0010436164448037744,0.027303745970129967
7.408808341715485,10.535323143005371,4.535571098327637,-0.01385169982910206,0.0001451123971492052,-0.00105480186175555,0.027257366105914116
7.410521160811186,-0.5548019409179688,-10.222678184509277,-0.00387245178222706,0.00014542974531650543,-0.0010596972424536943,0.027221716940402985
7.412379405694082,14.780241012573242,-11.090075492858887,-0.0009875869750981536,0.00013896950986236334,-0.0010697637917473912,0.027173466980457306
7.4143341176677495,0.6017732620239258,10.224637985229492,-0.032440719604492685,0.00013527250848710537,-0.001079042674973607,0.02712627686560154
7.416349381674081,14.779056549072266,-11.091654777526855,-0.014791069030762216,0.00013414921704679728,-0.0010881565976887941,0.027081221342086792
7.418133307714015,-3.9289207458496094,20.73809242248535,0.022121849060058096,0.00013522279914468527,-0.0010949503630399704,0.02704417146742344
7.420030900742859,-5.088794708251953,0.29120874404907227,-0.040527877807617685,0.00012912391684949398,-0.001105017843656242,0.02699536457657814
7.421940944623202,9.665692329406738,-10.803415298461914,-0.009116706848145029,0.00012588745448738337,-0.001113444333896041,0.026949668303132057
7.423818323761225,-3.925701141357422,20.738698959350586,0.013378562927245596,0.00012451654765754938,-0.0011217753635719419,0.026907939463853836
7.42569621372968,-0.5588340759277344,-10.222431182861328,-0.007591781616211435,0.0001260483404621482,-0.001129837124608457,0.02686922997236252
7.428028205642477,19.887256622314453,-11.38759994506836,-0.08201366424560597,0.00011961348354816437,-0.0011424447875469923,0.026809945702552795
7.429936794796959,8.788898468017578,-26.140554428100586,0.048214378356933096,0.00011746876407414675,-0.0011478132801130414,0.02676483243703842
7.431922599673271,0.6067838668823242,10.224370956420898,-0.04247528076171925,0.0001169741153717041,-0.0011574323289096355,0.026721611618995667
7.433883351739496,10.830793380737305,9.64015007019043,0.002115669250487784,0.00012003572192043066,-0.0011652068933472037,0.026682142168283463
7.435669312719256,-6.257768630981445,-20.153223037719727,0.005718650817870596,0.00011315988376736641,-0.0011711516417562962,0.026634983718395233
7.437638267641887,10.831745147705078,9.639063835144043,-0.02168422698974659,0.00010973133612424135,-0.0011810348369181156,0.026586713269352913
7.439407599624246,-11.371365547180176,-19.85974884033203,-0.0008874511718754974,0.00010722188744693995,-0.0011874153278768063,0.026546161621809006
7.441315650707111,10.246524810791016,-0.5851888656616211,-0.014272270202637216,0.0001095249317586422,-0.0011960923438891768,0.02650560438632965
7.4431864228099585,-0.5633878707885742,-10.222147941589355,-0.003808555603027841,0.00010308774653822184,-0.0012038456043228507,0.02645629085600376
7.445072389673442,0.02342851459980011,0.001031968742609024,0.024972381591796378,9.943649638444185e-05,-0.0012114562559872866,0.026410000398755074
7.446967663709074,10.834153175354004,9.636402130126953,-0.05431610107421925,9.934371337294579e-05,-0.001219027442857623,0.02636665478348732
7.4488981226459146,-9.611350059509277,10.812386512756348,0.03433555603027294,0.00010022602509707212,-0.0012272474123165011,0.026325641199946404
7.450896551832557,-4.499303817749023,10.518486022949219,-0.0015750503540044036,9.299721568822861e-05,-0.0012356197694316506,0.026272468268871307
7.452550138812512,19.291053771972656,-21.623523712158203,-0.01633602142334034,8.975865785032511e-05,-0.0012395314406603575,0.026231195777654648
7.454400524729863,4.545229911804199,-10.516843795776367,-0.012247619628906747,8.88673821464181e-05,-0.0012480902951210737,0.02618817612528801
7.456362864701077,-0.5667924880981445,-10.221945762634277,-0.01379066467285206,9.025714825838804e-05,-0.0012570100370794535,0.026145661249756813
7.458541232626885,4.544062614440918,-10.517332077026367,-0.04476314544677784,8.49615316838026e-05,-0.0012657616753131151,0.026088988408446312
