timestamp,accel_x,accel_y,accel_z,gyro_x,gyro_y,gyro_z
5.725144320167601,5.119996070861816,-5.120003700256348,-9.529999313354493,0.0,0.0,0.0
5.727261893218383,-5.119996070861816,5.120003700256348,-9.724999008178711,0.0,0.0,0.0
5.729430880164728,-5.119992256164551,10.24000358581543,-9.919999656677247,0.0,0.0,0.0
5.731469694292173,-5.119999885559082,3.814697265625e-06,-9.50499969482422,0.0,0.0,0.0
5.733605693327263,-15.359987258911133,15.36001205444336,-10.039999542236329,0.0,0.0,0.0
5.735711857210845,3.814697265625e-06,5.119999885559082,-9.719998893737793,0.0,0.0,0.0
5.73779228515923,-15.359987258911133,15.36001205444336,-9.75499969482422,0.0,0.0,0.0
5.740740847308189,2.5599961280822754,-5.120001792907715,-11.484999237060547,0.0,0.0,0.0
5.743393820244819,0.0,0.0,-9.289999542236329,0.0,0.0,0.0
5.745522435288876,3.814697265625e-06,5.119999885559082,-8.709999618530274,0.0,0.0,0.0
5.7476241022814065,-5.119992256164551,10.24000358581543,-9.744999465942383,0.0,0.0,0.0
5.749757114332169,-3.814697265625e-06,-5.119999885559082,-9.874999580383301,0.0,0.0,0.0
5.752246531192213,5.119996070861816,-5.120003700256348,-10.544999656677247,0.0,0.0,0.0
5.754168225219473,-5.120003700256348,-5.119996070861816,-8.544999656677247,0.0,0.0,0.0
5.756355292163789,10.239986419677734,-15.360007286071777,-10.404999313354493,0.0,0.0,0.0
5.758494211360812,15.3599853515625,-20.480010986328125,-9.689999160766602,0.0,0.0,0.0
5.760726869339123,10.239995956420898,-5.120007514953613,-10.00499969482422,0.0,0.0,0.0
5.7627900873776525,-15.3599853515625,20.480010986328125,-9.424999771118165,0.0,0.0,0.0
5.764840042218566,-5.119992256164551,10.24000358581543,-9.764998970031739,0.0,0.0,0.0
5.766913194209337,-5.119992256164551,10.24000358581543,-9.859999237060547,0.0,0.0,0.0
5.768967516254634,-10.239995956420898,5.120007514953613,-9.764998970031739,0.0,0.0,0.0
5.771013588178903,3.814697265625e-06,5.119999885559082,-9.78499942779541,0.0,0.0,0.0
5.773067725356668,3.814697265625e-06,5.119999885559082,-9.829999504089356,0.0,0.0,0.0
5.775948139373213,-5.119999885559082,3.814697265625e-06,-11.432499465942383,0.0,0.0,0.0
5.778035857249051,-3.814697265625e-06,-5.119999885559082,-8.244999465942383,0.0,0.0,0.0
5.780089550185949,-10.239992141723633,10.240007400512695,-9.714999732971192,0.0,0.0,0.0
5.7822614992037416,-5.119999885559082,3.814697265625e-06,-10.084999618530274,0.0,0.0,0.0
5.7842759331688285,0.0,0.0,-9.44499927520752,0.0,0.0,0.0
5.78631234029308,-10.239995956420898,5.120007514953613,-9.844998893737793,0.0,0.0,0.0
5.788375407224521,0.0,0.0,-9.859999237060547,0.0,0.0,0.0
5.790435437345877,-10.239995956420898,5.120007514953613,-9.779999313354493,0.0,0.0,0.0
5.792635544203222,5.119992256164551,-10.24000358581543,-10.124999580383301,0.0,0.0,0.0
5.794681320199743,0.0,0.0,-9.454999504089356,0.0,0.0,0.0
5.796686130343005,-15.359991073608398,10.240012168884277,-9.704999504089356,0.0,0.0,0.0
5.798711342271417,5.119996070861816,-5.120003700256348,-9.849999008178711,0.0,0.0,0.0
5.800729455193505,5.119999885559082,-3.814697265625e-06,-9.764998970031739,0.0,0.0,0.0
5.802747711306438,10.239986419677734,-15.360007286071777,-9.804998931884766,0.0,0.0,0.0
5.804785641375929,-5.119992256164551,10.24000358581543,-9.85499912261963,0.0,0.0,0.0
5.806825154228136,-10.239995956420898,5.120007514953613,-9.809999046325684,0.0,0.0,0.0
5.808897622162476,-15.359991073608398,10.240012168884277,-9.894999084472657,0.0,0.0,0.0
5.81089978129603,-10.239999771118164,7.62939453125e-06,-9.634999809265137,0.0,0.0,0.0
5.812905277358368,-5.120003700256348,-5.119996070861816,-9.799999771118165,0.0,0.0,0.0
5.814895689254627,3.814697265625e-06,5.119999885559082,-9.769999084472657,0.0,0.0,0.0
5.8169147041626275,15.359987258911133,-15.36001205444336,-9.85499912261963,0.0,0.0,0.0
5.820143199292943,-2.559998035430908,2.560001850128174,-12.064999160766602,0.0,0.0,0.0
5.82223990932107,-3.814697265625e-06,-5.119999885559082,-7.714999256134034,0.0,0.0,0.0
5.824322761269286,5.119992256164551,-10.24000358581543,-9.759999809265137,0.0,0.0,0.0
5.826406903332099,-5.119999885559082,3.814697265625e-06,-9.807499465942383,0.0,0.0,0.0
5.828475089278072,-3.814697265625e-06,-5.119999885559082,-9.752499160766602,0.0,0.0,0.0
5.83051229827106,10.239984512329102,-20.48000717163086,-9.719998893737793,0.0,0.0,0.0
5.832625677343458,-10.239986419677734,15.360007286071777,-9.994999465942383,0.0,0.0,0.0
5.83462746324949,-15.3599853515625,20.480010986328125,-9.54249912261963,0.0,0.0,0.0
5.836670055286959,0.0,0.0,-9.899999198913575,0.0,0.0,0.0
5.83877015626058,-10.239986419677734,15.360007286071777,-9.937499580383301,0.0,0.0,0.0
5.840942610288039,5.120003700256348,5.119996070861816,-9.967499313354493,0.0,0.0,0.0
5.843157517258078,5.119987487792969,-15.360003471374512,-9.887499389648438,0.0,0.0,0.0
5.84534460818395,10.239992141723633,-10.240007400512695,5.880000534057617,8.629261749604211e-09,2.1613439926682076e-09,-1.6334266072913183e-17
5.847480430267751,5.119999885559082,-3.814697265625e-06,17.93250030517578,1.9039060106251782e-08,5.2321649235409495e-09,-2.1277319912482023e-13
5.849579090252519,-15.35999584197998,5.120012283325195,17.629998626708982,2.7960464166199017e-08,8.782723881495258e-09,2.7413897540906618e-11
5.851712897187099,5.119999885559082,-3.814697265625e-06,17.419999542236326,3.996044029008772e-08,1.1618990214401492e-08,3.6936793901265474e-11
5.853849442210048,5.120003700256348,5.119996070861816,17.145001831054685,5.140666559100282e-08,1.6015999193541575e-08,4.510682105607344e-11
5.8559286433737725,3.814697265625e-06,5.119999885559082,16.849999847412107,6.251617179486857e-08,1.82741999310565e-08,4.945424625368844e-11
5.857964398339391,15.359987258911133,-15.36001205444336,16.614999237060545,7.336772966937133e-08,1.925462811414036e-08,5.344806541796032e-11
5.860081783263013,7.62939453125e-06,10.239999771118164,16.445001068115232,8.268825268942237e-08,2.2075973049595632e-08,5.566042071691868e-11
5.862078852253035,-5.119999885559082,3.814697265625e-06,16.072499694824216,9.424618241382632e-08,2.303777790757522e-08,5.6884885690777764e-11
5.864126875298098,-5.119996070861816,5.120003700256348,15.947499694824218,1.0466559530186714e-07,2.402779841759184e-08,5.978251227389819e-11
5.866181651363149,3.814697265625e-06,5.119999885559082,15.679999771118164,1.1558205414985423e-07,2.477243299381371e-08,6.212844128050676e-11
5.868266301229596,-10.239992141723633,10.240007400512695,15.447499694824218,1.2570038165904407e-07,2.628722484132595e-08,6.223851989339835e-11
5.870388632174581,-3.814697265625e-06,-5.119999885559082,15.222501220703125,1.3649180630181945e-07,2.6025659849437943e-08,6.334013868958266e-11
5.872493531322107,-10.239992141723633,10.240007400512695,14.945001068115234,1.457308798080703e-07,2.7046809236708214e-08,6.367989469069357e-11
5.875084008323029,-5.119992256164551,10.24000358581543,14.997498931884765,1.577271859787288e-07,2.6416117293592833e-08,6.438129196428832e-11
5.877477767178789,-10.239995956420898,5.120007514953613,14.30750030517578,1.6882334819001699e-07,2.7577911509979458e-08,6.072344016505582e-11
5.879536246182397,-10.239992141723633,10.240007400512695,13.947499694824218,1.7980458721922332e-07,2.757550987553259e-08,6.01581284787045e-11
5.881911455187947,20.479984283447266,-20.48001480102539,14.15125030517578,1.9082941093984118e-07,2.815104949149827e-08,6.330733159920499e-11
5.884344529360533,0.0,0.0,13.708749237060546,2.0269436618036707e-07,2.9624672492900572e-08,6.215296333156317e-11
5.886536703212187,10.239986419677734,-15.360007286071777,13.257501068115234,2.1083562273815915e-07,2.962130452033307e-08,6.215324088731933e-11
5.888597641373053,10.239992141723633,-10.240007400512695,13.093751373291015,2.2281587064298947e-07,2.987071923143958e-08,6.16459938651559e-11
5.890692961169407,5.119996070861816,-5.120003700256348,13.0025,2.315769620508945e-07,3.063240683331969e-08,6.456479795247105e-11
5.892755646258593,-5.119987487792969,15.360003471374512,12.727500381469726,2.4116900476656156e-07,3.088058520006598e-08,6.441119859701416e-11
5.894836132181808,5.120003700256348,5.119996070861816,12.548749389648437,2.5132879954981036e-07,3.062720566049393e-08,6.507552829937424e-11
5.897800639271736,3.814697265625e-06,5.119999885559082,12.864999237060546,2.6377827566648193e-07,3.134616122224543e-08,6.337674829381967e-11
5.899921154370531,-5.119996070861816,5.120003700256348,11.472501220703125,2.751305601123022e-07,3.185931518601137e-08,6.052276735335482e-11
5.90203150222078,5.119999885559082,-3.814697265625e-06,11.80750030517578,2.8201989721310383e-07,3.160184292028134e-08,6.465462887295104e-11
5.904030311387032,-3.814697265625e-06,-5.119999885559082,11.512500228881835,2.9228084486021544e-07,3.232958079024684e-08,6.296126120464152e-11
5.9060232422780246,5.119992256164551,-10.24000358581543,11.407498779296875,3.006583142450836e-07,3.2085978318718844e-08,6.396908003303281e-11
5.908194153336808,10.239984512329102,-20.48000717163086,11.352500381469726,-9.830727094595204e-07,3.234970336052356e-08,6.293467136320174e-11
5.910148054361343,15.3599853515625,-20.480010986328125,10.836249771118164,3.316237098260899e-07,3.329705577925779e-08,-3.9895442505155643e-10
5.912200426217169,-15.359991073608398,10.240012168884277,10.893750610351562,3.3422597311982827e-07,3.429033768043155e-08,1.3224610295736738e-10
5.91420022235252,-7.62939453125e-06,-10.239999771118164,10.582499923706054,3.5658268870975007e-07,3.4529932690929854e-08,-4.536157005574637e-10
5.916265631327406,-5.119999885559082,3.814697265625e-06,10.488749923706054,3.5268629972051713e-07,3.502989898152009e-08,2.2178853198440152e-10
5.918333432171494,-5.119999885559082,3.814697265625e-06,10.247498931884765,3.5231968809057435e-07,3.5780914231509087e-08,2.7368290966833797e-10
5.920439584180713,3.814697265625e-06,5.119999885559082,10.09625,3.533845642778033e-07,3.807795678767434e-08,2.2801072141476197e-10
5.922520724358037,-10.239986419677734,15.360007286071777,9.83875030517578,3.829753154604987e-07,3.832425932159822e-08,-7.086553566182374e-10
5.924574677366763,3.814697265625e-06,5.119999885559082,9.656251373291015,-1.3396789881880977e-06,-1.9961782982136356e-07,-9.013700896787213e-10
5.926703675184399,5.119992256164551,-10.24000358581543,9.565,4.600358920470171e-07,4.087294769306027e-08,-1.8295356341013758e-09
5.928792716236785,-10.239986419677734,15.360007286071777,9.28375,4.593672997543763e-07,4.1656363691799925e-08,-4.641715900532972e-10
5.931069242302328,10.239995956420898,-5.120007514953613,9.28000015258789,4.5834036654923693e-07,4.322978952586709e-08,-2.1519941384440244e-10
5.93315974320285,0.0,0.0,8.790000381469726,-1.285984467358503e-06,-1.953984565261635e-07,-1.5780321493963356e-10
5.935236764373258,-5.119996070861816,5.120003700256348,8.753751220703125,-8.046905577430152e-07,4.3775344238383695e-08,-8.589531308444975e-10
5.937348298262805,-5.119996070861816,5.120003700256348,8.62000030517578,4.640506574560277e-07,4.4559698153534555e-08,5.825099291811853e-10
5.939354286296293,0.0,0.0,8.337499084472656,4.349905964318168e-07,4.569389489006426e-08,1.2006615701665169e-09
5.941445647273213,10.239992141723633,-10.240007400512695,8.336249771118164,4.590136768456432e-07,4.567644396047399e-08,-7.464777684873525e-10
5.943559934385121,10.239984512329102,-20.48000717163086,8.116250457763671,-1.3166550161258783e-06,-1.933373141582706e-07,9.201532868985396e-10
5.945707205217332,-5.120003700256348,-5.119996070861816,7.950625839233398,4.562485287351592e-07,4.4507743268695776e-08,-6.603926294701523e-10
5.947851097211242,-5.119996070861816,5.120003700256348,7.749375762939453,4.4648729158325295e-07,4.428849820214964e-08,1.940496652252932e-10
5.950051453197375,3.814697265625e-06,5.119999885559082,7.634999694824218,4.495655332448223e-07,4.447781520866556e-08,-2.3261015336117907e-10
5.95222988538444,-3.814697265625e-06,-5.119999885559082,7.4087499999999995,4.773553428094601e-07,4.182277280051494e-08,-1.2141103677976162e-09
5.954267901368439,0.0,0.0,7.156875076293945,-1.2765034398398711e-06,-1.9723893274203874e-07,-1.6222767573736974e-10
5.956273216288537,5.119992256164551,-10.24000358581543,7.093751373291015,4.940907274431083e-07,4.176695256319363e-08,-1.156271967062139e-09
5.958276546327397,-5.119992256164551,10.24000358581543,6.966250839233398,4.5725593622591987e-07,4.223153382554301e-08,1.2545642302796978e-09
5.960389498388395,-3.814697265625e-06,-5.119999885559082,6.915624084472656,4.290590140954009e-07,4.214285809212015e-08,1.3640590879049341e-09
5.962586648296565,-5.119996070861816,5.120003700256348,6.742499771118164,4.370323836155876e-07,4.132871822548623e-08,-1.2718787134602394e-10
5.964581351261586,-20.47998809814453,15.360014915466309,6.364375534057617,-1.3288859008753207e-06,-1.9702736153703881e-07,8.714473587190241e-10
5.966624774271622,-15.359987258911133,15.36001205444336,6.421250762939453,4.498265582242311e-07,4.1054875055124285e-08,-1.1067631255912147e-09
5.968659792328253,-20.479984283447266,20.48001480102539,6.246875228881835,4.5119674041416147e-07,4.105228867956612e-08,-4.114694140966435e-10
5.970712203299627,-10.239995956420898,5.120007514953613,6.128750267028808,4.5108953372619e-07,4.0968359371618135e-08,-2.5703139616695125e-10
5.9727119251620024,15.3599853515625,-20.480010986328125,5.932500305175781,4.2694142621257924e-07,4.1682426399347605e-08,9.764400399348006e-10
5.975631997222081,-10.239995956420898,5.120007514953613,6.422500076293945,4.697545250564872e-07,3.990768959738489e-08,-1.3335301751737916e-09
5.977618692209944,0.0,0.0,5.054999771118164,4.417026389091916e-07,4.015194576822978e-08,9.39889721607301e-10
5.979591855313629,-3.814697265625e-06,-5.119999885559082,5.533125343322753,-8.682129646331305e-07,-4.3836939767061267e-07,1.1415002276748965e-09
5.981656525284052,10.239986419677734,-15.360007286071777,5.487500610351562,4.2145506995439064e-07,3.898401246260619e-08,3.482334420823463e-10
5.98384560435079,10.239986419677734,-15.360007286071777,5.381875457763671,-1.3390595086093526e-06,-2.0042614323756425e-07,7.79423636743104e-10
5.986855946248397,-2.5599961280822754,5.120001792907715,5.6090626144409175,-1.327999143541092e-06,-1.9999538380943704e-07,-5.165573524479328e-11
5.988966352306306,10.239992141723633,-10.240007400512695,4.448125305175781,4.2723877413664013e-07,3.837195095002244e-08,-1.4320819530233564e-10
5.991343522211537,5.119999885559082,-3.814697265625e-06,5.032500686645507,-8.781826181802899e-07,3.807178927672794e-08,6.934870455665987e-10
5.993668205337599,-5.119992256164551,10.24000358581543,4.682500305175781,4.1764380398490175e-07,3.8830364701425424e-08,8.31620605712402e-11
5.996072368230671,-5.119996070861816,5.120003700256348,4.633750381469726,4.243955515903508e-07,3.9981330246519065e-08,-1.4749484966714022e-10
5.99836759432219,-3.814697265625e-06,-5.119999885559082,4.392500343322753,-8.609931114733627e-07,4.1785881421674276e-08,-3.244440271998883e-10
6.0005843923427165,5.119999885559082,-3.814697265625e-06,4.279375495910644,4.2984035530935216e-07,4.285629984224215e-08,3.0174085452472355e-11
6.002743888180703,5.119999885559082,-3.814697265625e-06,4.189375343322753,4.3398637217251235e-07,4.403156594889879e-08,-2.2180601799703936e-10
6.004910277202725,-10.239995956420898,5.120007514953613,4.110625686645507,4.1947350837290287e-07,4.5999030362509075e-08,6.675409114365038e-10
6.007023844169453,-10.239999771118164,7.62939453125e-06,3.9681257629394526,4.098484396308777e-07,4.778829065799073e-08,6.684324205252778e-10
6.009315196191892,3.814697265625e-06,5.119999885559082,4.000625076293945,4.2544266420918575e-07,4.8755282477941364e-08,-4.655615892801279e-10
6.011148307239637,-5.119992256164551,10.24000358581543,3.474999847412109,4.379899678497168e-07,4.941963993587706e-08,-7.167987314815605e-10
6.013322120299563,-10.239999771118164,7.62939453125e-06,3.9231256866455073,4.682900112129573e-07,4.94169682951906e-08,-1.686167205861011e-09
6.015350179281086,-15.359991073608398,10.240012168884277,3.497500839233398,4.647910429866897e-07,5.0400871032252326e-08,-3.2397401428241324e-10
6.017460169270635,5.119996070861816,-5.120003700256348,3.550625267028808,-1.3045132618572097e-06,-1.8684852420847164e-07,9.6413543815288e-10
6.020560565171763,2.560001850128174,2.559998035430908,3.865000190734863,4.462781078018452e-07,5.34606385826919e-08,1.7096241089475939e-10
6.022928679361939,2.5599961280822754,-5.120001792907715,2.9062504196166987,4.288259560780716e-07,5.456320195662556e-08,8.464311473943553e-10
6.025026952382177,-5.119999885559082,3.814697265625e-06,3.0018753433227534,4.5942869064674596e-07,5.3366051133707515e-08,-1.4488157340508678e-09
6.02731101331301,0.0,0.0,3.1675009155273433,4.3796640625259897e-07,5.4745669331168756e-08,6.899649740432778e-10
6.0296544132288545,-3.814697265625e-06,-5.119999885559082,2.993750038146972,4.4552584199664125e-07,5.4315165698426426e-08,-4.088767102672364e-10
6.031945914262906,5.119999885559082,-3.814697265625e-06,2.8331255340576167,-1.280318997487484e-06,-1.8744276530924253e-07,-1.2367049606609726e-09
6.034045840380713,0.0,0.0,2.6662506484985347,4.5971489726071013e-07,5.1390713906585006e-08,-1.4057956188029408e-11
6.03606603317894,3.814697265625e-06,5.119999885559082,2.646874847412109,-1.2704355185633176e-06,-1.8939670098916395e-07,-1.1777114838906755e-09
6.038118267199025,5.119996070861816,-5.120003700256348,2.63937515258789,4.6663600983265496e-07,4.999674274586141e-08,1.7824214326722654e-10
6.040242495248094,10.239986419677734,-15.360007286071777,2.575625839233398,4.5775519197377434e-07,4.8706851885071956e-08,2.0937584999103365e-10
6.04213391430676,20.479984283447266,-20.48001480102539,2.3193754577636714,4.5097161205376324e-07,4.8741867431090213e-08,1.7080659109325325e-10
6.04423142131418,-15.359991073608398,10.240012168884277,2.504374923706054,4.281021972474264e-07,4.910901907351217e-08,1.142218319927224e-09
6.046261937357485,10.239992141723633,-10.240007400512695,2.271874847412109,4.4929953446626314e-07,4.7627537469452363e-08,-1.1226040097511714e-09
6.048312271246687,0.0,0.0,2.2450003051757808,-1.3212662679507048e-06,-1.907617388496874e-07,8.975626908380718e-10
6.050373317208141,-5.120003700256348,-5.119996070861816,2.170000495910644,4.4296120904618874e-07,4.7849908924035844e-08,-7.99510901927647e-10
6.05240877228789,10.239995956420898,-5.120007514953613,2.0831255340576167,4.572714829009783e-07,4.636453354578407e-08,-1.2814020955431715e-09
6.054426731308922,5.119999885559082,-3.814697265625e-06,2.0100006484985347,4.490200922191434e-07,4.6039787093832274e-08,3.152415828377997e-11
6.057411095360294,2.5599961280822754,-5.120001792907715,2.3406252288818354,4.3820767814395367e-07,4.5484000565920724e-08,2.4506263684997975e-10
6.05946254520677,0.0,0.0,1.4806255722045893,4.137011160310067e-07,4.6354386995517416e-08,1.2205039201518275e-09
6.061794330365956,-20.47998809814453,15.360014915466309,1.9174999618530268,-1.3327169199328637e-06,-1.935655973284156e-07,-8.830039477381035e-11
6.063552137231454,-10.239992141723633,10.240007400512695,1.4362501525878901,-1.335383899458975e-06,-1.9400590645091143e-07,5.603156827405087e-11
6.065593319246545,-20.479984283447266,20.48001480102539,1.8275007629394526,4.1031250930245733e-07,4.429475097822433e-08,1.0671263872552572e-10
6.067666801158339,-5.119996070861816,5.120003700256348,1.6262506866455073,3.9136290297392407e-07,4.395934638523613e-08,9.731120353961842e-10
6.069655456347391,0.0,0.0,1.50812572479248,-1.3487986052496126e-06,-1.954609842869104e-07,-2.3607954480198146e-10
6.071666333358735,7.62939453125e-06,10.239999771118164,1.5093750381469722,3.9852787381278176e-07,4.3716852360375924e-08,-9.392041311340193e-11
6.07385871023871,5.119992256164551,-10.24000358581543,1.5175003433227534,3.809426232237456e-07,4.346665605226008e-08,8.28356050419643e-10
6.075910503277555,-5.119987487792969,15.360003471374512,1.315625610351562,3.705409881149535e-07,4.301256240069051e-08,8.266387574451528e-10
6.077934357337654,-25.599987030029297,20.48002052307129,1.3081259155273433,-1.3670464795723092e-06,-1.9649644400487887e-07,-3.178382002033686e-10
6.0799580262973905,-5.119992256164551,10.24000358581543,1.2699999237060542,4.1833894215415057e-07,4.027140221296577e-08,-2.5297701711224363e-09
6.082029752200469,-5.119992256164551,10.24000358581543,1.2281250381469722,4.150415691128728e-07,3.9267433749046177e-08,-4.249190999061625e-10
6.084075706312433,10.239995956420898,-5.120007514953613,1.1575006866455073,3.925293015072384e-07,3.906274059772841e-08,1.007271377417851e-09
6.086118479259312,0.0,0.0,1.11750072479248,3.7562185184469854e-07,3.9421394149030675e-08,1.0779812598116223e-09
6.088239518227056,-10.239995956420898,5.120007514953613,1.0937504196166987,-1.384288452754845e-06,-1.9958213215431897e-07,9.143787949028592e-10
6.090429006377235,10.239999771118164,-7.62939453125e-06,1.045000495910644,3.694473775794904e-07,3.9199761658892385e-08,-1.4024215122532269e-10
6.092462108237669,-5.119992256164551,10.24000358581543,0.904375495910644,3.774179617721529e-07,3.798868419835344e-08,-6.041362965447661e-10
6.094481678213924,10.239995956420898,-5.120007514953613,0.91437572479248,3.6516217960524955e-07,3.778984591917833e-08,5.928454394066307e-10
6.096501991385594,3.814697265625e-06,5.119999885559082,0.8756250762939448,-1.3751282494922634e-06,-2.0228173980285646e-07,-3.0985569665631374e-10
6.09855975327082,3.814697265625e-06,5.119999885559082,0.8506254577636714,3.7508556260945625e-07,3.5960852073912974e-08,-2.6988244972159237e-10
6.100667295278981,-3.814697265625e-06,-5.119999885559082,0.80500072479248,3.6160358263259695e-07,3.546338689375261e-08,6.690759057903506e-10
6.102728667203337,5.119992256164551,-10.24000358581543,0.7331251525878901,3.869216129714914e-07,3.400759851501789e-08,-1.5150720678036578e-09
6.10482393624261,5.119992256164551,-10.24000358581543,0.716875495910644,3.6896000210617785e-07,3.374393031663203e-08,5.733582497668976e-10
6.106889806222171,20.47998809814453,-15.360014915466309,0.6537508392333979,3.5687796184902254e-07,3.3241803976125084e-08,8.205904844515999e-10
6.109000571304932,10.239995956420898,-5.120007514953613,0.6425003433227534,3.485075410480931e-07,3.337095222377684e-08,7.27786941823183e-10
6.113091822946444,-2.5599961280822754,5.120001792907715,0.9315628433227534,3.6688257409878133e-07,3.213148147551692e-08,-4.697631172945194e-10
6.115872407099232,2.5599961280822754,-5.120001792907715,0.2981256866455073,3.577439997570764e-07,3.398724857106572e-08,3.2062108523689403e-10
6.118039807071909,3.814697265625e-06,5.119999885559082,0.30937522888183544,-9.18591922527412e-08,2.724103183027182e-07,-6.088992643427105e-10
6.119879476027563,-5.119999885559082,3.814697265625e-06,0.3300003433227534,3.5853031477017794e-07,3.310444185444794e-08,2.909890661761949e-10
6.121890824055299,0.0,0.0,0.45125049591064403,-1.3976316495245555e-06,-2.05453829948965e-07,6.635749727479379e-10
6.125850518932566,-5.119993209838867,7.680003643035889,0.6831249618530268,3.6758501664735377e-07,3.246503865739214e-08,-1.600309884608464e-10
6.128399613080546,2.559999942779541,-1.9073486328125e-06,0.09656280517578075,-1.3950899528936134e-06,-2.0618324469978688e-07,6.431859489453018e-10
6.130425679963082,-5.119992256164551,10.24000358581543,0.14000076293945263,3.7503704675145855e-07,3.156739580845169e-08,-1.2800600579510046e-09
6.132486111018807,7.62939453125e-06,10.239999771118164,0.24812549591064403,-1.3687224509340012e-06,-2.0864922589680646e-07,-6.880560565747373e-10
6.134514708071947,-5.119999885559082,3.814697265625e-06,0.2050003433227534,4.1245417037316656e-07,2.8350314096314833e-08,-2.415370126129801e-09
6.1374686260242015,-2.5599961280822754,5.120001792907715,0.35437530517578075,3.7806972841281095e-07,2.7988733108941233e-08,9.325109573410373e-10
6.141151234973222,-2.559999942779541,1.9073486328125e-06,0.21375030517578075,3.7521942886087345e-07,2.7250877110418514e-08,3.2082184131532188e-12
6.143667479977012,-5.120003700256348,-5.119996070861816,-0.05187469482421925,-1.3951470236861496e-06,-2.1131313587829936e-07,9.68651825417055e-10
6.146466182079166,-2.5600037574768066,-5.119997978210449,0.10437530517578075,4.0110109011948225e-07,2.5121494218183216e-08,-2.2960966461482712e-09
6.148855186067522,0.0,0.0,-0.030624923706055185,3.914956892003829e-07,2.387511699453171e-08,-3.252706992640242e-10
6.15118084102869,-5.119996070861816,5.120003700256348,-0.00312477111816456,3.8384558820325765e-07,2.297616674695746e-08,1.8908635768255522e-10
6.153465898009017,5.120003700256348,5.119996070861816,-0.02374988555908253,3.7457937196450075e-07,2.2277390598901547e-08,2.2412477429512023e-10
6.155597592005506,-3.814697265625e-06,-5.119999885559082,-0.06562477111816456,-1.3968743814984919e-06,-2.1623861812258838e-07,1.2247389769015626e-09
6.157639312092215,5.119996070861816,-5.120003700256348,-0.08124977111816456,3.479326267097349e-07,2.3341470978266443e-08,2.961315637151074e-10
6.159681336954236,-5.120003700256348,-5.119996070861816,-0.07249980926513722,-1.4158152907839394e-06,-2.1595656107820105e-07,9.975664738703927e-10
6.1616955189965665,3.814697265625e-06,5.119999885559082,-0.10874992370605518,3.327776028072549e-07,2.2914662167750066e-08,6.916510419952004e-11
6.1639424620661885,5.119996070861816,-5.120003700256348,-0.07749992370605518,3.5345630067240563e-07,2.0614180584743735e-08,-1.4658687597091102e-09
6.166037029121071,0.0,0.0,-0.15812450408935597,-1.4119650586508214e-06,-2.1802839000883978e-07,7.704508142580835e-10
6.16802320512943,3.814697265625e-06,5.119999885559082,-0.17499977111816456,3.458134472111851e-07,2.1810052430737414e-08,-7.511791189074302e-10
6.170357550960034,-5.119992256164551,10.24000358581543,-0.12499958038330128,3.576614915345999e-07,2.0287529878260102e-08,-1.0678176121103888e-09
6.172087184153497,10.239992141723633,-10.240007400512695,-0.28749996185302784,3.5212320881328196e-07,1.958454731720849e-08,-1.0880146783520672e-10
6.174285877030343,-10.239992141723633,10.240007400512695,-0.12374931335449268,3.268460488925484e-07,2.0105574094486656e-08,1.1526388732363557e-09
6.176419107941911,3.814697265625e-06,5.119999885559082,-0.22749954223632862,3.0841928833069687e-07,2.0749268969666446e-08,1.156678086644547e-09
6.178610133007169,0.0,0.0,-0.22812419891357472,3.1216325169225456e-07,2.021550926656346e-08,-7.557954262438216e-11
6.1806828561238945,-15.359987258911133,15.36001205444336,-0.2749991989135747,3.1483435236623336e-07,1.9964943476225017e-08,-4.355310556647396e-10
6.182772390078753,-10.239986419677734,15.360007286071777,-0.26749950408935597,2.9902275855420157e-07,2.0599543404387077e-08,7.557552361703301e-10
6.184851719066501,-5.119996070861816,5.120003700256348,-0.2774997329711919,3.0404495987568225e-07,2.0345765960883e-08,-1.995828502465713e-10
6.186888603959233,5.119996070861816,-5.120003700256348,-0.29874950408935597,-1.439137349734665e-06,-2.189583483414026e-07,-3.262659031832982e-10
6.18895777896978,5.119996070861816,-5.120003700256348,-0.29999977111816456,3.2451234233121795e-07,1.8960207626150805e-08,-1.2021961204311538e-09
6.19104296900332,5.119992256164551,-10.24000358581543,-0.3112493133544927,-1.4407746675715316e-06,-2.2092979179433314e-07,7.877201113615229e-10
6.193138082046062,5.119996070861816,-5.120003700256348,-0.33124977111816456,3.212849151168484e-07,1.7829250964496168e-08,-9.404519385469712e-10
6.195191125152633,-15.359991073608398,10.240012168884277,-0.3412500000000005,3.1688222179582226e-07,1.6829432070153416e-08,-1.8692941639031346e-10
6.197267764015123,20.479984283447266,-20.48001480102539,-0.3399997329711919,2.963115832699259e-07,1.7251579720323207e-08,1.005195260361802e-09
6.1993269310332835,3.814697265625e-06,5.119999885559082,-0.36624961853027393,2.810859882629302e-07,1.74867693658598e-08,1.0505150083162107e-09
6.201356566976756,7.62939453125e-06,10.239999771118164,-0.3712497329711919,2.8621744263546134e-07,1.6868028751559905e-08,-3.064750120351789e-10
6.203359002945945,15.359991073608398,-10.240012168884277,-0.387499389648438,-1.472878579988901e-06,-2.2143615296954522e-07,6.887079795347972e-10
6.205424827057868,5.119999885559082,-3.814697265625e-06,-0.3762498474121099,3.0661502137263597e-07,1.6982681927402155e-08,-2.0762414010278007e-09
6.207448177039623,10.239986419677734,-15.360007286071777,-0.39749961853027393,3.0345165669132257e-07,1.612491473679256e-08,-6.235667537879408e-10
6.209498554002494,5.119992256164551,-10.24000358581543,-0.39624935150146534,2.836148098595004e-07,1.616837153051165e-08,9.076823737075301e-10
6.211538891075179,3.814697265625e-06,5.119999885559082,-0.4162498092651372,2.850916018815042e-07,1.5783314211148536e-08,-1.7511164740469098e-10
6.213612786028534,-10.239995956420898,5.120007514953613,-0.4199996566772466,2.689887139695202e-07,1.6033652627811534e-08,8.482847757562695e-10
6.2156935629900545,-3.814697265625e-06,-5.119999885559082,-0.42624908447265675,2.564303258623113e-07,1.691623197075387e-08,8.904088577565972e-10
6.218882590997964,2.559999942779541,-1.9073486328125e-06,-0.4043746566772466,-1.5064323406477342e-06,-2.2208178052096628e-07,7.249227884642551e-10
6.221226772060618,2.559999942779541,-1.9073486328125e-06,-0.4618745422363286,2.6545504283603805e-07,1.6648016298859147e-08,-1.2688707862196225e-09
6.2232590049970895,-5.119999885559082,3.814697265625e-06,-0.4624991989135747,2.538563421694562e-07,1.6305250483128475e-08,4.2614545225916345e-10
6.2255730060860515,5.120003700256348,5.119996070861816,-0.4474998092651372,2.436544832562504e-07,1.6927344859141158e-08,6.571017063805584e-10
6.227703639073297,-5.119999885559082,3.814697265625e-06,-0.4674993133544927,2.554139086896612e-07,1.6913759282033425e-08,-6.364706539585541e-10
6.229832007084042,5.120003700256348,5.119996070861816,-0.4649997329711919,-1.5012723224572255e-06,-2.2162146251503145e-07,4.6102877071518833e-10
6.23189035593532,-5.119992256164551,10.24000358581543,-0.4799991226196294,2.5270088599427254e-07,1.7901385263030534e-08,-3.3823654987941154e-10
6.234006934100762,-15.3599853515625,20.480010986328125,-0.4687495803833013,2.4212445737248345e-07,1.7783520434022648e-08,4.945239773235244e-10
6.236150610027835,-3.814697265625e-06,-5.119999885559082,-0.4799991226196294,-1.041198174789315e-06,1.783143943612231e-08,-3.493844102919752e-10
6.238212610129267,5.119999885559082,-3.814697265625e-06,-0.48999935150146534,2.5051309648915776e-07,1.8318104366699117e-08,-2.1136642436303532e-10
6.240254550008103,5.119996070861816,-5.120003700256348,-0.48874908447265675,2.4500889139744686e-07,1.9553226593416184e-08,2.448645175512354e-10
6.242256094003096,-10.239995956420898,5.120007514953613,-0.48874908447265675,2.487173844656354e-07,2.015653421949537e-08,-3.3134517352095827e-10
6.244983535958454,0.0,0.0,-0.48687416076660206,2.3612628297087213e-07,2.0650460896831646e-08,5.185165630194888e-10
6.247099475003779,-10.239995956420898,5.120007514953613,-0.5024991607666021,-1.0347370107410825e-06,2.0777292775164824e-08,-1.1477259143077845e-09
6.2493294349405915,5.119992256164551,-10.24000358581543,-0.4937491989135747,2.553502440605371e-07,2.1182444243095233e-08,-2.2843221758606091e-10
6.251463287975639,3.814697265625e-06,5.119999885559082,-0.4999995803833013,-2.0014525148326356e-07,2.6058660296257585e-07,-2.925664155384311e-10
6.25376734114252,10.239995956420898,-5.120007514953613,-0.5037494277954107,-2.0364544184303668e-07,2.6279479925506166e-07,8.782286009534346e-11
6.255962900118902,-5.119996070861816,5.120003700256348,-0.5037494277954107,-2.1171413777665293e-07,2.637661111748457e-07,4.5449344288073235e-10
6.2581457800697535,-5.119992256164551,10.24000358581543,-0.5062499618530278,2.39478936236992e-07,2.6006972575487453e-08,4.5453640851178534e-10
6.260273737134412,5.119999885559082,-3.814697265625e-06,-0.5087495422363286,2.3111444136247883e-07,2.6953543397212343e-08,6.128632046298321e-10
6.262377161066979,-10.239986419677734,15.360007286071777,-0.5087495422363286,2.2508062613724178e-07,2.742498850238917e-08,5.446129103248154e-10
6.2643923971336335,3.814697265625e-06,5.119999885559082,-0.5099998092651372,2.326764700910644e-07,2.7927143264605547e-08,-3.205965493080498e-10
6.266390121076256,7.62939453125e-06,10.239999771118164,-0.5037494277954107,2.435435533243435e-07,2.889748884626897e-08,-7.433094140196772e-10
6.2684195230249316,0.0,0.0,-0.5149999237060552,2.470494848694216e-07,2.9264498380143777e-08,-3.959680361376172e-10
6.2704347691033036,-5.119999885559082,3.814697265625e-06,-0.5049996948242192,2.3826660822123813e-07,2.9018821123827365e-08,4.981910439738613e-10
6.272419217042625,-10.239992141723633,10.240007400512695,-0.5162492370605474,2.4755800609455036e-07,2.8658035944317817e-08,-4.6232506711874066e-10
6.274579934077337,15.359991073608398,-10.240012168884277,-0.5112491226196294,-1.5099982419997104e-06,-2.1047537757112877e-07,5.016550508329942e-10
6.2766111579257995,10.239992141723633,-10.240007400512695,-0.5062499618530278,2.4857027369762363e-07,2.9841203286196105e-08,-6.575214817061692e-10
6.280866151908413,7.679995536804199,-5.120006084442139,-0.6146875000000005,2.572033395153994e-07,2.9799451795042842e-08,-4.987981139237263e-10
6.2835741287563,-5.119996070861816,5.120003700256348,-0.418749389648438,2.732301140895288e-07,3.024453576472297e-08,-1.1030314439608446e-09
6.28577676974237,-5.119996070861816,5.120003700256348,-0.4837499237060552,2.6722750590124633e-07,3.077224164371728e-08,-6.302477983943788e-11
6.288115017814562,-5.119996070861816,5.120003700256348,-0.5149999237060552,2.4959382471934077e-07,3.133729364890314e-08,8.983389587768897e-10
6.290098242694512,-3.814697265625e-06,-5.119999885559082,-0.48749977111816456,2.5366000500071095e-07,3.1215193985190126e-08,-1.515184921974111e-10
6.292277206899598,-5.119999885559082,3.814697265625e-06,-0.50749927520752,2.569722425960208e-07,3.029023787348706e-08,-3.216915622772376e-10
6.294484061887488,0.0,0.0,-0.4975000000000005,2.597436434825795e-07,2.9489484631994856e-08,-4.868184744211135e-10
6.296610324876383,10.239995956420898,-5.120007514953613,-0.49124961853027393,2.432715007216757e-07,2.9749799068667926e-08,7.815808000799507e-10
6.2997030057013035,-3.814697265625e-06,-5.119999885559082,-0.5518746948242192,2.522104409763415e-07,2.843742663571902e-08,-5.192795082820112e-10
6.302026756806299,5.119996070861816,-5.120003700256348,-0.44437461853027393,-1.4920165085641202e-06,-2.1121672943991143e-07,-5.151136184267102e-10
6.3041404988616705,-10.239992141723633,10.240007400512695,-0.48749977111816456,-1.493216814196785e-06,-2.1132632355147507e-07,-1.2050707653976644e-10
6.306225356878713,-5.119987487792969,15.360003471374512,-0.48999935150146534,2.5652994395386486e-07,2.8627113124457537e-08,-3.561934081020013e-10
6.308288974920288,5.119992256164551,-10.24000358581543,-0.4837499237060552,2.3836200568894128e-07,2.855281877600646e-08,9.001261958019313e-10
6.310327389743179,0.0,0.0,-0.4787498092651372,2.2497340523841558e-07,2.895168904615275e-08,9.78701564235962e-10
6.312408399768174,-10.239984512329102,20.48000717163086,-0.4849992370605474,-2.257355617985013e-07,2.697478862501157e-07,-2.713200775161795e-10
6.314455404877663,-10.239992141723633,10.240007400512695,-0.48624950408935597,2.2327212434447574e-07,3.114622870725725e-08,4.290097166403939e-10
6.316508753923699,-10.239995956420898,5.120007514953613,-0.47624927520752003,2.298654209198503e-07,3.2887626844058104e-08,-3.806186477106621e-10
6.3185464318376034,-10.239992141723633,10.240007400512695,-0.4687495803833013,-1.0724028243203065e-06,3.3584569791855756e-08,6.308300548596435e-10
6.320735357701778,5.119999885559082,-3.814697265625e-06,-0.4774995422363286,2.1961764673505968e-07,3.439251372583385e-08,4.1001008144192497e-11
6.322839063825086,0.0,0.0,-0.4699998474121099,-2.4763275519035233e-07,2.7463525498205854e-07,6.111817718590373e-10
6.324945901753381,0.0,0.0,-0.45874935150146534,2.0569822822835704e-07,3.600464992814523e-08,3.9025371822987154e-10
6.3270060028880835,7.62939453125e-06,10.239999771118164,-0.45874935150146534,1.9890093483354576e-07,3.698829686982208e-08,5.2985682508222e-10
6.329098520800471,-15.359987258911133,15.36001205444336,-0.4662500000000005,1.9800901895905554e-07,3.820908034413151e-08,1.9445339782819815e-10
6.331126093864441,-5.119999885559082,3.814697265625e-06,-0.4474998092651372,1.936943192504259e-07,3.883396004766837e-08,3.8685143977090775e-10
6.333162985742092,5.119996070861816,-5.120003700256348,-0.45999961853027393,1.9133835849061143e-07,3.945180537812121e-08,3.65783181521806e-10
6.335185259813443,15.359991073608398,-10.240012168884277,-0.44124942779541065,1.8995251593878493e-07,3.981826068866212e-08,3.1157409985382856e-10
6.337294265860692,-5.119999885559082,3.814697265625e-06,-0.4474998092651372,1.889623462147938e-07,4.020078847588593e-08,2.580067826052357e-10
6.339295627782121,0.0,0.0,-0.4350000000000005,1.884198752577504e-07,4.092804317679111e-08,2.141815613754261e-10
6.341349737718701,-5.119999885559082,3.814697265625e-06,-0.4474998092651372,2.1891995061196212e-07,4.080112603332964e-08,-1.7957888509556597e-09
6.34351401287131,5.119999885559082,-3.814697265625e-06,-0.43999916076660206,2.423470846224518e-07,4.040722956233367e-08,-1.88088167263345e-09
6.345468947896734,-5.119996070861816,5.120003700256348,-0.4174991226196294,2.299549919371202e-07,4.1001442241395125e-08,3.353639588254964e-10
6.347519712755457,0.0,0.0,-0.4362493133544927,2.3601430143571633e-07,4.0253723909700057e-08,-3.687951055653116e-10
6.349529182771221,3.814697265625e-06,5.119999885559082,-0.4162498092651372,2.405898271717888e-07,3.988967023360601e-08,-4.3913983560628367e-10
6.351640729699284,-3.814697265625e-06,-5.119999885559082,-0.4324994659423833,2.4378644525313575e-07,3.937861947633792e-08,-5.652823764634718e-10
6.353613239713013,-10.239986419677734,15.360007286071777,-0.4062495803833013,2.2867054383368668e-07,3.985881846801931e-08,7.079645758523156e-10
6.355994085781276,7.62939453125e-06,10.239999771118164,-0.449999389648438,2.5429079641980934e-07,3.8558226833629305e-08,-1.5392029872884905e-09
6.358161089709029,-10.239992141723633,10.240007400512695,-0.3887496566772466,-1.4934870478100493e-06,-2.0074162421224173e-07,-5.404072744852328e-10
6.36031343578361,0.0,0.0,-0.40874916076660206,2.482051968399901e-07,3.869135412060132e-08,7.883492469940023e-12
6.362616316881031,-10.239986419677734,15.360007286071777,-0.41249996185302784,2.2746876027213148e-07,3.890373534432001e-08,1.030216578712384e-09
6.364726315718144,0.0,0.0,-0.38124996185302784,2.296425805070612e-07,3.882966836954438e-08,-5.379981182773719e-11
6.367018831893802,-7.62939453125e-06,-10.239999771118164,-0.4049993133544927,-1.5153777894738596e-06,-2.0054540073033422e-07,-4.1733305700120127e-10
6.369967866921797,2.559999942779541,-1.9073486328125e-06,-0.44437461853027393,2.3105208413198852e-07,3.8575606708946e-08,-1.0600707811558863e-11
6.372232149820775,0.0,0.0,-0.3224998092651372,-1.5358847349489224e-06,-1.9984224763902603e-07,9.375225040741952e-10
6.374389190692455,-3.814697265625e-06,-5.119999885559082,-0.36749988555908253,2.135848404805074e-07,3.924496638774144e-08,-3.340654575884061e-12
6.376538104843348,-3.814697265625e-06,-5.119999885559082,-0.3687491989135747,2.0048933890848275e-07,3.940465376217617e-08,7.764273668442456e-10
6.379591626813635,-1.9073486328125e-06,-2.559999942779541,-0.4512496566772466,1.8504103138639039e-07,3.969125828007236e-08,7.349498787334596e-10
6.381646286696196,-10.239995956420898,5.120007514953613,-0.2762494659423833,1.792116108845221e-07,4.0179358506975404e-08,6.03942562626969e-10
6.383741720812395,-10.239995956420898,5.120007514953613,-0.3549991226196294,1.8680064783893613e-07,4.068462544637441e-08,-3.004431148312392e-10
6.385913682868704,-10.239995956420898,5.120007514953613,-0.3712497329711919,1.801070652618364e-07,4.147327103964926e-08,3.8775949118274866e-10
6.388535212725401,3.814697265625e-06,5.119999885559082,-0.3906245803833013,1.9159590181061503e-07,4.2106378828066227e-08,-5.42654809976284e-10
6.391521639889106,-2.5599937438964844,7.680001735687256,-0.38249927520752003,2.0637541808810056e-07,4.2104431940970244e-08,-9.430731751081112e-10
6.393888495862484,-5.119996070861816,5.120003700256348,-0.2774997329711919,1.9393560535263532e-07,4.3109352532155754e-08,4.995871494273274e-10
6.397841067053378,7.67999267578125,-10.240005493164062,-0.4849992370605474,-1.5725464663773892e-06,-1.9577282728278078e-07,5.982341289012538e-10
6.401687358040363,-1.2799980640411377,2.5600008964538574,-0.3137498474121099,1.972267398286931e-07,4.212846249629365e-08,-3.7118808027258865e-10
6.404205969069153,5.119996070861816,-5.120003700256348,-0.18624931335449268,1.8677877733352943e-07,4.277052312318119e-08,4.953379928451795e-10
6.406363628106192,-5.119996070861816,5.120003700256348,-0.2799993133544927,1.815162846696694e-07,4.312357759772567e-08,5.29092547552068e-10
6.408128640148789,0.0,0.0,-0.27124935150146534,1.777615494802376e-07,4.375915807486308e-08,4.6523629393391275e-10
6.410136653110385,-7.62939453125e-06,-10.239999771118164,-0.33499961853027393,1.7610973657156137e-07,4.436499523308157e-08,3.8807024260734124e-10
6.412202967097983,-7.62939453125e-06,-10.239999771118164,-0.3112493133544927,1.7490067705239198e-07,4.5114859403838636e-08,3.209932319947484e-10
6.414370018057525,5.120003700256348,5.119996070861816,-0.3112493133544927,1.7361145410177414e-07,4.498123473695159e-08,2.620434425004703e-10
6.416427493095398,10.239992141723633,-10.240007400512695,-0.2799993133544927,1.725697700294404e-07,4.5230763134895824e-08,2.1479162892745762e-10
6.418466286035255,5.119992256164551,-10.24000358581543,-0.28874927520752003,1.723837357303637e-07,4.584840951338265e-08,1.776519487073358e-10
6.420612259069458,10.23997688293457,-25.600008010864258,-0.29874950408935597,-6.592032377739088e-07,-1.9296214759378927e-07,1.5596177127541466e-10
6.422630198998377,5.119996070861816,-5.120003700256348,-0.27249961853027393,1.8039406768366462e-07,4.6281058985186974e-08,-3.1910274422841667e-10
6.424636675976217,-15.3599853515625,20.480010986328125,-0.28624969482421925,1.7930273088495596e-07,4.601827185979346e-08,9.809028589380375e-11
6.426771407015622,3.814697265625e-06,5.119999885559082,-0.2974992370605474,1.7831330012541002e-07,4.632005357052549e-08,1.613529865274188e-10
6.428907971130684,3.814697265625e-06,5.119999885559082,-0.26999908447265675,1.7894943482588133e-07,4.6823515731375664e-08,1.4870979447856314e-10
6.431469372939318,-3.814697265625e-06,-5.119999885559082,-0.3100000000000005,1.8191286699220655e-07,4.759611726967705e-08,1.2471640387090588e-10
6.433595465961844,15.359991073608398,-10.240012168884277,-0.21999984741210987,1.839473213749443e-07,4.8109811245922174e-08,1.089870138581972e-10
6.435813218122348,10.239992141723633,-10.240007400512695,-0.2649999237060552,2.0037163039887673e-07,4.878044990164199e-08,-8.44441627734227e-10
6.438050508033484,5.119999885559082,-3.814697265625e-06,-0.2599998092651372,2.163671695143421e-07,4.7964618943296955e-08,-1.0044651777008085e-09
6.440153978066519,0.0,0.0,-0.23749977111816456,2.2924558606973733e-07,4.783866813795612e-08,-1.047428144218543e-09
6.442286157049239,-5.119996070861816,5.120003700256348,-0.25624996185302784,2.3635698198631871e-07,4.732206093649438e-08,-7.273119884132484e-10
6.4445089949294925,0.0,0.0,-0.25749927520752003,2.4451063040942245e-07,4.691898425335239e-08,-7.499991738768585e-10
6.446560489945114,10.239992141723633,-10.240007400512695,-0.22124916076660206,2.470060564974119e-07,4.667137432079471e-08,-4.681243170878702e-10
6.448667983990163,10.239999771118164,-7.62939453125e-06,-0.24249988555908253,2.3192374953850958e-07,4.7055806362550356e-08,7.250522404689264e-10
6.450956586981192,10.239992141723633,-10.240007400512695,-0.24999958038330128,2.189571262078971e-07,4.7887695586723567e-08,8.003320228766597e-10
6.452980497153476,-5.119996070861816,5.120003700256348,-0.20624977111816456,2.2275142441685603e-07,4.690349442171282e-08,-1.067319566061542e-10
6.455021969974041,-10.239995956420898,5.120007514953613,-0.231249389648438,2.1798926752580883e-07,4.455304747352784e-08,2.597382864344411e-10
6.4570616281125695,-3.814697265625e-06,-5.119999885559082,-0.21999984741210987,2.1541558226090274e-07,4.220878224714397e-08,2.8416874409131765e-10
6.4591414970345795,7.62939453125e-06,10.239999771118164,-0.2299991226196294,2.138547898766774e-07,3.981901386396203e-08,1.9973833698117005e-10
6.462302905041724,-3.814697265625e-06,-5.119999885559082,-0.3287492370605474,-1.079783714885707e-06,-4.426537998369895e-07,2.4363511208491673e-10
6.464489137055352,-10.239986419677734,15.360007286071777,-0.10374980926513722,-1.5129417079151608e-06,-2.051051524176728e-07,-1.3209695559623924e-09
6.466601388994604,0.0,0.0,-0.20874935150146534,2.47864448965629e-07,3.2216121326200664e-08,-1.1121501497513009e-09
6.4689304190687835,10.239992141723633,-10.240007400512695,-0.21874958038330128,2.449861256081931e-07,3.2123978144227294e-08,-1.415449701891447e-10
6.471043912926689,-10.239992141723633,10.240007400512695,-0.1850000000000005,2.2925206621948746e-07,3.2410710559815925e-08,8.16896772448672e-10
6.473165784962475,-10.239986419677734,15.360007286071777,-0.199999389648438,2.1662128801835934e-07,3.2651357173563156e-08,8.435765419534391e-10
6.475406862096861,-5.120003700256348,-5.119996070861816,-0.20374923706054737,2.2824191603376676e-07,3.196831244167697e-08,-5.745736109119548e-10
6.477320773061365,5.119996070861816,-5.120003700256348,-0.15999942779541065,2.5150134774776234e-07,3.069203557970468e-08,-1.7643180250104251e-09
6.479396924143657,-3.814697265625e-06,-5.119999885559082,-0.20249992370605518,2.347127576740604e-07,3.157727235247876e-08,5.767986088756061e-10
6.481456723064184,10.239995956420898,-5.120007514953613,-0.17874961853027393,-1.5066869991642307e-06,-2.077895260299556e-07,-3.608007226318932e-10
6.483655320946127,3.814697265625e-06,5.119999885559082,-0.1987491226196294,2.396095339918247e-07,3.1324958627010346e-08,-1.535986338119244e-10
6.485775348963216,5.119996070861816,-5.120003700256348,-0.168749389648438,-1.0676403690013103e-06,3.1504214348387904e-08,8.349010371944132e-10
6.487951382994652,5.119992256164551,-10.24000358581543,-0.17874961853027393,2.215379311110155e-07,3.1691428148405976e-08,1.861164555805317e-10
6.490042844088748,10.239986419677734,-15.360007286071777,-0.16124969482421925,2.094113256134733e-07,3.155200545279513e-08,7.374703070439637e-10
6.492226189002395,10.239992141723633,-10.240007400512695,-0.1824994659423833,1.9857047561799845e-07,3.194746511780977e-08,7.073004404389849e-10
6.494149564066902,3.814697265625e-06,5.119999885559082,-0.13374954223632862,1.9311625010232092e-07,3.276296922649635e-08,5.980785866555038e-10
6.496173803927377,25.599987030029297,-20.48002052307129,-0.16374927520752003,1.8825747361006506e-07,3.3128955578831665e-08,4.897657834845859e-10
6.498229741118848,-5.119992256164551,10.24000358581543,-0.1674991226196294,1.8557844327915518e-07,3.337702025874023e-08,3.974107709581176e-10
6.500282992143184,5.119992256164551,-10.24000358581543,-0.1537500000000005,1.967794389656774e-07,3.424777617055952e-08,-4.692835009478813e-10
6.502338686957955,10.239999771118164,-7.62939453125e-06,-0.15749984741210987,1.9233345938118873e-07,3.536770520895516e-08,2.5085472588060043e-10
6.504453185014427,5.120003700256348,5.119996070861816,-0.15499931335449268,1.898550721080028e-07,3.60057441639583e-08,3.3863489790064705e-10
6.506618346087635,5.120003700256348,5.119996070861816,-0.1512494659423833,2.077278367096369e-07,3.5478223026075284e-08,-9.689131719170518e-10
6.510024174116552,2.559998035430908,-2.560001850128174,-0.2793746566772466,2.2633068397226452e-07,3.5478720405990316e-08,-7.611946628571786e-10
6.512218290939927,0.0,0.0,-0.008749542236328622,-1.5324850437536952e-06,-2.0334971395641332e-07,4.923614849161595e-10
6.514486635103822,3.814697265625e-06,5.119999885559082,-0.14624935150146534,2.308522937255475e-07,3.516069568831881e-08,-8.387384120567276e-10
6.516637535998598,-7.62939453125e-06,-10.239999771118164,-0.11624961853027393,2.3000598048383836e-07,3.5228239880780166e-08,-2.5388674496085173e-10
6.518731425050646,5.119996070861816,-5.120003700256348,-0.13124996185302784,2.1696384067126928e-07,3.5282113231005496e-08,6.74026834346364e-10
6.520797336939722,-3.814697265625e-06,-5.119999885559082,-0.12499958038330128,2.0632388952890324e-07,3.589642005863425e-08,7.22725435053917e-10
6.523651264142245,10.239995956420898,-5.120007514953613,-0.20937496185302784,1.9654058291962428e-07,3.6757612065230205e-08,5.791160884172086e-10
6.525826482102275,10.239992141723633,-10.240007400512695,-0.051250038146973154,1.9218174429624924e-07,3.7151181686567725e-08,4.6085102400894584e-10
6.528042763005942,-5.120003700256348,-5.119996070861816,-0.1212497329711919,1.909434814706401e-07,3.782184876399697e-08,3.681502880326093e-10
6.530144421150908,-5.119996070861816,5.120003700256348,-0.106249389648438,-1.5576632677039015e-06,-2.0116942778258817e-07,3.086515487638053e-10
6.532218446023762,-5.119996070861816,5.120003700256348,-0.11749988555908253,2.1301158881215088e-07,3.753173416498612e-08,-1.1912695274673979e-09
6.534257644088939,-3.814697265625e-06,-5.119999885559082,-0.10999923706054737,2.0592530347585125e-07,3.753646637960628e-08,1.9450402399812106e-10
6.53634004900232,3.814697265625e-06,5.119999885559082,-0.11624961853027393,2.1372947855979874e-07,3.795867087319493e-08,-3.8929370838047817e-10
6.538519487017766,-15.359991073608398,10.240012168884277,-0.12749916076660206,2.0595595628947194e-07,3.847254959055135e-08,3.745354026918335e-10
6.540701878955588,5.119996070861816,-5.120003700256348,-0.106249389648438,2.1950668838144338e-07,3.8336395391525e-08,-8.403577833604459e-10
6.543851799098775,1.9073486328125e-06,2.559999942779541,-0.20249992370605518,2.0748339579768071e-07,3.948159132960427e-08,4.1062508948641607e-10
6.545997845008969,3.814697265625e-06,5.119999885559082,0.00500053405761669,2.2146234357478534e-07,3.8828645188004884e-08,-8.11053002536255e-10
6.548133285949007,5.120003700256348,5.119996070861816,-0.09624916076660206,2.1313105946774158e-07,3.8959555581641325e-08,3.692049999060032e-10
6.550242446130142,-5.119992256164551,10.24000358581543,-0.09374958038330128,2.067308741970919e-07,3.934322023724235e-08,5.053734097870688e-10
6.552455949131399,0.0,0.0,-0.10374980926513722,-2.551817885887431e-07,-6.778211627533892e-07,4.779381335140442e-10
6.554604506120086,15.359991073608398,-10.240012168884277,-0.08374935150146534,2.225434911906632e-07,3.787468472182809e-08,-1.165104679401452e-09
6.556697541149333,-5.119996070861816,5.120003700256348,-0.08124977111816456,2.1448958875680546e-07,3.669121895200078e-08,2.626092676649705e-10
6.558768118964508,5.119996070861816,-5.120003700256348,-0.08624988555908253,2.2731484250471112e-07,3.5954613508693e-08,-7.948643965249858e-10
6.560771781951189,-15.359987258911133,15.36001205444336,-0.08250003814697315,2.1867157329324982e-07,3.664695213956293e-08,3.8133740609680444e-10
6.562851388007402,-20.47998809814453,15.360014915466309,-0.10374980926513722,2.3061754461650708e-07,3.6638667211263964e-08,-7.290767989331925e-10
6.564837737940252,5.119996070861816,-5.120003700256348,-0.0737491226196294,-1.5075756891747005e-06,-2.0337392925284803e-07,-8.097955639385646e-10
6.5668841721490026,3.814697265625e-06,5.119999885559082,-0.08499961853027393,2.592511805232789e-07,3.493329359116615e-08,-1.4804730774642394e-09
6.568979385076091,-5.119992256164551,10.24000358581543,-0.08749919891357472,2.6073308845298016e-07,3.431435402490024e-08,-6.061711133042991e-10
6.571046537021175,5.120003700256348,5.119996070861816,-0.06999927520752003,-1.4684153484267881e-06,-2.0623315322154667e-07,-1.4545027404722077e-09
6.573069039965048,-5.120003700256348,-5.119996070861816,-0.07124954223632862,2.8420529929462646e-07,3.3069625260395696e-08,-9.289891078623214e-10
6.575097491964698,-10.239992141723633,10.240007400512695,-0.08124977111816456,-1.0145131454919465e-06,3.244315394113073e-08,-1.0249742721235577e-10
6.577174436068162,5.119999885559082,-3.814697265625e-06,-0.07249980926513722,-1.0294758112650015e-06,3.235925305489218e-08,6.056002366250368e-10
6.579494931036606,10.239986419677734,-15.360007286071777,-0.09874969482421925,2.481393721609493e-07,3.290801942057442e-08,6.442479882906582e-10
6.581617180956528,5.120003700256348,5.119996070861816,-0.04499965667724659,2.27146642828302e-07,3.303347284600022e-08,1.2188701159487891e-09
6.583662368124351,10.239986419677734,-15.360007286071777,-0.06374984741210987,2.106934005041694e-07,3.3404731425434875e-08,1.1169940528077404e-09
6.585687342099845,15.359991073608398,-10.240012168884277,-0.05499988555908253,1.9996876687855547e-07,3.377209623067756e-08,9.252181243368796e-10
6.587817213963717,-5.119996070861816,5.120003700256348,-0.074999389648438,1.9014952101770177e-07,3.454599095675803e-08,7.438103466483881e-10
6.589882729109377,5.119999885559082,-3.814697265625e-06,-0.056249198913574716,1.840691226107083e-07,3.479446775145334e-08,5.970910432750998e-10
6.591863645007834,10.239986419677734,-15.360007286071777,-0.053749618530273935,1.9181216259767098e-07,3.527401304381783e-08,-3.087248789945818e-10
6.594068078091368,10.239992141723633,-10.240007400512695,-0.074999389648438,2.00541919070929e-07,3.5807218523586926e-08,-5.648855827544708e-10
6.595886487048119,0.0,0.0,-0.017499504089355966,1.9344065549375955e-07,3.61368961421249e-08,3.8637248955808445e-10
6.597931747091934,0.0,0.0,-0.08124977111816456,-1.5589570239171735e-06,-2.0216486973367864e-07,5.28731280979855e-10
6.600407374091446,-3.814697265625e-06,-5.119999885559082,-0.09624916076660206,2.0140183210060059e-07,3.751493693471275e-08,-4.5156089978348746e-10
6.602432125015184,3.814697265625e-06,5.119999885559082,-0.006249961853027841,1.9339447021593514e-07,3.7353501625148056e-08,4.085440874490587e-10
6.604467692086473,5.119996070861816,-5.120003700256348,-0.046249923706055185,1.8753590325104597e-07,3.7408298680929875e-08,4.971740796833046e-10
6.606538463151082,0.0,0.0,-0.28499942779541065,1.8391260425687506e-07,3.764770895031688e-08,4.36784164392634e-10
6.609463218133897,12.79998779296875,-15.360010147094727,0.18875068664550732,1.935601687819144e-07,3.782201929425355e-08,-3.1003222211722914e-10
6.611506175948307,5.119996070861816,-5.120003700256348,-0.18749958038330128,-1.1005748774550739e-06,3.8565190152439754e-08,2.87767754070245e-10
6.613524297950789,15.359991073608398,-10.240012168884277,0.00500053405761669,1.963957032558028e-07,3.905266510173533e-08,-3.3140928890063037e-10
6.616675511933863,-3.814697265625e-06,-5.119999885559082,0.0006250762939448151,1.906031172893563e-07,4.019679522571096e-08,3.3462244086734927e-10
6.61867879005149,10.239995956420898,-5.120007514953613,0.0012506866455073151,1.8898691678259638e-07,4.019466359750368e-08,3.480347121609384e-10
6.620697705075145,7.62939453125e-06,10.239999771118164,-0.0012498474121098724,1.8854652239497227e-07,4.0561673131378484e-08,3.0301244846597797e-10
6.624109360156581,-2.5600037574768066,-5.119997978210449,-0.26812416076660206,-6.47143622245494e-07,-1.985494009204558e-07,2.5934820957473903e-10
6.626345775090158,-3.814697265625e-06,-5.119999885559082,0.25750011444091747,1.9466250478217262e-07,4.0066126416604675e-08,-2.600306081568249e-10
6.6285205979365855,5.119999885559082,-3.814697265625e-06,-0.3737493133544927,1.924750421267163e-07,3.9966280951375666e-08,1.623252643412343e-10
6.6304980360437185,10.239984512329102,-20.48000717163086,0.40125030517578075,1.9116303917598998e-07,4.000827402705909e-08,2.074389549022726e-10
6.632491589989513,10.239992141723633,-10.240007400512695,-0.517499504089356,1.909145765921494e-07,4.011559440186829e-08,1.8837359450074587e-10
6.634510427014902,10.239995956420898,-5.120007514953613,0.2050003433227534,1.9078383672876953e-07,4.0602785134069563e-08,1.6014084502913306e-10
6.636557376943529,10.239992141723633,-10.240007400512695,-0.029999313354492685,1.91940998206519e-07,4.097358896615333e-08,1.338407162876365e-10
6.6386013079900295,-5.119996070861816,5.120003700256348,-0.029999313354492685,2.0218560337070812e-07,4.0724330574448686e-08,-4.844411538584836e-10
6.640629942994565,10.239995956420898,-5.120007514953613,-0.028750000000000497,-1.088347516997601e-06,4.121716301597189e-08,7.562392378979155e-11
6.642737854970619,0.0,0.0,-0.03749996185302784,2.134404155640368e-07,4.17271053265722e-08,-5.096898458845089e-10
6.644740899093449,-10.239992141723633,10.240007400512695,-0.016249237060547372,2.1086881929477386e-07,4.1968775121858926e-08,1.6383466805436342e-10
6.646806898061186,0.0,0.0,-0.041249809265137216,2.0826897184633708e-07,4.234387063206668e-08,2.601088233689097e-10
6.648894356098026,-5.119999885559082,3.814697265625e-06,-0.03249984741210987,2.0732294103709137e-07,4.284919441488455e-08,2.3758123246508944e-10
6.651757434010506,-7.67999267578125,10.240005493164062,-0.10062461853027393,-6.266599257287453e-07,-1.955426114363945e-07,2.128862086614447e-10
6.654105257010087,5.119987487792969,-15.360003471374512,0.030000152587890128,2.1599637989311304e-07,4.345983484199678e-08,-2.86714207931027e-10
6.65638220612891,0.0,0.0,-0.008749542236328622,2.145693542843219e-07,4.341032422416902e-08,1.481783584722507e-10
6.658615668071434,5.119999885559082,-3.814697265625e-06,-0.017499504089355966,2.1418519224880583e-07,4.374535933493462e-08,1.9331908296393863e-10
6.660775914089754,0.0,0.0,-0.012499389648437997,2.1472801847721712e-07,4.386444629744801e-08,1.7287504761043238e-10
6.6629276210442185,15.359987258911133,-15.36001205444336,-0.016249237060547372,2.148915996258438e-07,4.451469237665151e-08,1.457933218595997e-10
6.665067136986181,-5.119992256164551,10.24000358581543,-0.022499618530273935,-1.0729302175604971e-06,4.5031811168882996e-08,1.2220857659173134e-10
6.667164467973635,0.0,0.0,-0.012499389648437997,2.3098397150533856e-07,4.5157307226872945e-08,-5.717100126645391e-10
6.669533831998706,5.119987487792969,-15.360003471374512,-0.04499965667724659,2.299368446756489e-07,4.530049579898332e-08,1.1732645410766906e-10
6.671665980946273,-5.119987487792969,15.360003471374512,0.008750381469726065,2.2949102174152358e-07,4.555873545086797e-08,2.0172097325854565e-10
6.673545453930274,10.239984512329102,-20.48000717163086,0.010000648498534659,-6.028237180544238e-07,-1.9366359538253164e-07,1.9624185609856681e-10
6.676472638966516,-7.67999267578125,10.240005493164062,-0.12437492370605518,2.4130704900926503e-07,4.629617933460395e-08,-2.679650945580647e-10
6.678613196127117,3.814697265625e-06,5.119999885559082,0.07125038146972607,2.400873029273498e-07,4.609219672602194e-08,1.702646912349337e-10
6.68055259808898,-10.239992141723633,10.240007400512695,0.0012506866455073151,-5.939648417552235e-07,-1.9278655827292823e-07,2.2570328939153228e-10
6.6833775280974805,-10.239999771118164,7.62939453125e-06,-0.1068750000000005,2.5034444206539774e-07,4.6504084139087354e-08,-2.372313456788788e-10
6.685371655970812,-5.120003700256348,-5.119996070861816,0.07500022888183544,2.477203224771074e-07,4.6399264874708024e-08,1.9015655716714264e-10
6.687428700039163,-10.239992141723633,10.240007400512695,-0.02374988555908253,2.466979083237675e-07,4.646446427614137e-08,2.3975943452825277e-10
6.689464996103197,-15.359987258911133,15.36001205444336,-0.009999809265137216,2.456342258483346e-07,4.670135922424379e-08,2.1475954348204596e-10
6.691841064020991,-5.119992256164551,10.24000358581543,-0.042499122619629404,2.4540401000194834e-07,4.655498742067721e-08,1.75585490591601e-10
6.694111633114517,-5.119999885559082,3.814697265625e-06,-0.0012498474121098724,-6.68454617880343e-07,-4.317304842516023e-07,1.6753681775227847e-10
6.6961163899395615,-3.814697265625e-06,-5.119999885559082,0.021250190734862784,2.559775964527944e-07,4.662481956074771e-08,-3.6946790071823443e-10
6.698220797115937,15.359987258911133,-15.36001205444336,-0.017499504089355966,2.6702289801505685e-07,4.609927373167011e-08,-6.951499376128822e-10
6.70032135094516,0.0,0.0,-0.009999809265137216,-1.4828684697931749e-06,-1.933162820932921e-07,1.7231349680457697e-10
6.703259652946144,-7.62939453125e-06,-10.239999771118164,-0.08812480926513722,2.854117155948188e-07,4.620682148015476e-08,-5.842413219880882e-10
6.705430708127096,0.0,0.0,0.07625049591064403,2.78854258795036e-07,4.638971518033941e-08,3.4303682117098333e-10
6.707514601992443,5.120003700256348,5.119996070861816,-0.0037494277954106536,2.72847785254271e-07,4.6587274482590146e-08,4.3730685739262753e-10
6.7095416251104325,-5.119996070861816,5.120003700256348,4.196166987213701e-07,2.701927712678298e-07,4.6823544153085095e-08,3.872138165661454e-10
6.7116499959956855,-3.814697265625e-06,-5.119999885559082,-0.017499504089355966,-1.020699528453406e-06,4.7332946451206226e-08,3.2153091300557435e-10
6.7137784799560905,20.47998809814453,-15.360014915466309,-0.004999694824219247,2.7972907901130384e-07,4.836371658711869e-08,-4.128929420588179e-10
6.715929304948077,5.119987487792969,-15.360003471374512,0.0024999999999995026,2.762889721452666e-07,4.875235504187003e-08,2.2851232017728762e-10
6.718189507024363,10.239995956420898,-5.120007514953613,-0.017499504089355966,-5.586667839452275e-07,-1.906732336465211e-07,3.107739621199812e-10
6.720293913036585,-5.119996070861816,5.120003700256348,0.015000762939452628,2.814271056195139e-07,4.840518386117765e-08,-1.7795021012290135e-10
6.722457868047059,-5.119996070861816,5.120003700256348,-0.008749542236328622,2.802361507292517e-07,4.8435282451464445e-08,2.2921931019936892e-10
6.724525235127658,5.119996070861816,-5.120003700256348,4.196166987213701e-07,2.793653948174324e-07,4.935927222504688e-08,2.640693774758063e-10
6.726604574127123,3.814697265625e-06,5.119999885559082,-0.0037494277954106536,2.777259453523584e-07,4.934375397169788e-08,2.332148918426924e-10
6.728685776004568,-10.239984512329102,20.48000717163086,-0.00249916076660206,2.987823677358392e-07,4.8583643774691154e-08,-1.2052228104408869e-09
6.731036952929571,5.119996070861816,-5.120003700256348,-0.03124958038330128,2.9292996828189644e-07,4.887041882284393e-08,1.6500395494389863e-10
6.733081869082525,7.62939453125e-06,10.239999771118164,0.030000152587890128,3.256955665165151e-07,4.750538096232049e-08,-1.9960659791706803e-09
6.734783959109336,-10.239992141723633,10.240007400512695,0.040000381469726065,3.3082000072681694e-07,4.6889027771612746e-08,-1.0333180977539769e-09
6.736838699085638,10.239992141723633,-10.240007400512695,-0.04499965667724659,-1.4236283050195198e-06,-1.9438004983385326e-07,2.1600643496100247e-10
6.73888638895005,0.0,0.0,0.006250801086425284,-9.622883681004168e-07,4.492653715715278e-08,-2.1256402193969848e-10
6.740919528063387,0.0,0.0,0.0012506866455073151,3.255051410633314e-07,4.4678529320663074e-08,8.164375425723236e-12
6.743077953113243,-5.119987487792969,15.360003471374512,-0.016249237060547372,3.1202003469843476e-07,4.4725794623445836e-08,7.393925471887997e-10
6.744884609943256,20.479984283447266,-20.48001480102539,1.003750267028808,0.0,0.0,0.0
6.746916356030852,-5.119999885559082,3.814697265625e-06,4.196166987213701e-07,0.0,0.0,0.0
6.749003400094807,-5.119996070861816,5.120003700256348,-0.0012498474121098724,0.0,0.0,0.0
6.7509838079568,15.359979629516602,-25.600013732910156,0.0037502670288080964,0.0,0.0,0.0
6.753031007014215,-7.62939453125e-06,-10.239999771118164,4.196166987213701e-07,0.0,0.0,0.0
6.755038014147431,7.62939453125e-06,10.239999771118164,-0.0012498474121098724,0.0,0.0,0.0
6.757041158154607,10.239999771118164,-7.62939453125e-06,0.0012506866455073151,0.0,0.0,0.0
6.759190801996738,5.119999885559082,-3.814697265625e-06,-0.0012498474121098724,0.0,0.0,0.0
6.761060893069953,5.119999885559082,-3.814697265625e-06,4.196166987213701e-07,0.0,0.0,0.0
6.76321073109284,-15.359991073608398,10.240012168884277,-0.0012498474121098724,0.0,0.0,0.0
6.765391970984638,5.119999885559082,-3.814697265625e-06,4.196166987213701e-07,0.0,0.0,0.0
6.7672325959429145,7.62939453125e-06,10.239999771118164,0.0012506866455073151,0.0,0.0,0.0
6.769331007031724,5.119996070861816,-5.120003700256348,4.196166987213701e-07,0.0,0.0,0.0
6.771455229958519,3.814697265625e-06,5.119999885559082,4.196166987213701e-07,0.0,0.0,0.0
6.773656469071284,5.119992256164551,-10.24000358581543,0.0012506866455073151,0.0,0.0,0.0
6.777428832137957,-2.5599918365478516,10.240001678466797,-0.0012498474121098724,0.0,0.0,0.0
6.779408399946988,3.814697265625e-06,5.119999885559082,4.196166987213701e-07,0.0,0.0,0.0
6.782360552111641,2.5600037574768066,5.119997978210449,0.0006250762939448151,0.0,0.0,0.0
6.784652104135603,-5.119999885559082,3.814697265625e-06,-0.0012498474121098724,0.0,0.0,0.0
6.786796095082536,5.119999885559082,-3.814697265625e-06,4.196166987213701e-07,0.0,0.0,0.0
6.788917433004826,5.120003700256348,5.119996070861816,4.196166987213701e-07,0.0,0.0,0.0
6.791311169043183,-10.239992141723633,10.240007400512695,4.196166987213701e-07,0.0,0.0,0.0
6.7931313461158425,-5.119999885559082,3.814697265625e-06,4.196166987213701e-07,0.0,0.0,0.0
6.795088537037373,5.119992256164551,-10.24000358581543,0.0024999999999995026,0.0,0.0,0.0
6.797503429930657,0.0,0.0,0.0012506866455073151,0.0,0.0,0.0
6.799556870944798,-10.239999771118164,7.62939453125e-06,-0.00249916076660206,0.0,0.0,0.0
6.801688728155568,0.0,0.0,-0.0012498474121098724,0.0,0.0,0.0
6.803807588061318,-5.119996070861816,5.120003700256348,4.196166987213701e-07,0.0,0.0,0.0
6.806624592049047,-2.559999942779541,1.9073486328125e-06,-0.0006242370605473724,0.0,0.0,0.0
6.8093635849654675,-2.559999942779541,1.9073486328125e-06,-0.0006242370605473724,0.0,0.0,0.0
6.811590034980327,3.814697265625e-06,5.119999885559082,4.196166987213701e-07,0.0,0.0,0.0
6.813712805043906,10.239992141723633,-10.240007400512695,0.0012506866455073151,0.0,0.0,0.0
6.815843682037666,-5.119999885559082,3.814697265625e-06,0.0012506866455073151,0.0,0.0,0.0
6.817976678954437,-15.3599853515625,20.480010986328125,-0.0037494277954106536,0.0,0.0,0.0
6.819920422974974,15.35999584197998,-5.120012283325195,4.196166987213701e-07,0.0,0.0,0.0
6.822069810004905,-10.239992141723633,10.240007400512695,-0.0012498474121098724,0.0,0.0,0.0
6.824068160960451,-5.119999885559082,3.814697265625e-06,0.0012506866455073151,0.0,0.0,0.0
6.826098253019154,3.814697265625e-06,5.119999885559082,-0.0012498474121098724,0.0,0.0,0.0
6.828105384018272,5.119987487792969,-15.360003471374512,0.0024999999999995026,0.0,0.0,0.0
6.830281715141609,10.239992141723633,-10.240007400512695,0.0012506866455073151,0.0,0.0,0.0
6.832188063068315,0.0,0.0,4.196166987213701e-07,0.0,0.0,0.0
6.834097156999633,-5.119999885559082,3.814697265625e-06,-0.0012498474121098724,0.0,0.0,0.0
6.836303113028407,20.479978561401367,-25.60001564025879,0.00500053405761669,0.0,0.0,0.0
6.838334839092568,10.239995956420898,-5.120007514953613,4.196166987213701e-07,0.0,0.0,0.0
6.840480067068711,-5.120003700256348,-5.119996070861816,4.196166987213701e-07,0.0,0.0,0.0
6.8426495040766895,10.239984512329102,-20.48000717163086,0.0024999999999995026,0.0,0.0,0.0
6.846300749108195,-10.239992141723633,10.240007400512695,-0.0012498474121098724,0.0,0.0,0.0
6.849150276044384,-2.5599937438964844,7.680001735687256,-0.0012498474121098724,0.0,0.0,0.0
6.851398949045688,5.119999885559082,-3.814697265625e-06,4.196166987213701e-07,0.0,0.0,0.0
6.8535809179302305,3.814697265625e-06,5.119999885559082,4.196166987213701e-07,0.0,0.0,0.0
6.855956379091367,10.239992141723633,-10.240007400512695,0.0037502670288080964,0.0,0.0,0.0
6.858016774058342,10.239992141723633,-10.240007400512695,0.0024999999999995026,0.0,0.0,0.0
6.860086958156899,5.119999885559082,-3.814697265625e-06,0.0024999999999995026,0.0,0.0,0.0
6.863315080059692,-7.67999267578125,10.240005493164062,-0.00312477111816456,0.0,0.0,0.0
6.865715867141262,2.559999942779541,-1.9073486328125e-06,0.0006250762939448151,0.0,0.0,0.0
6.867863160092384,5.119996070861816,-5.120003700256348,4.196166987213701e-07,0.0,0.0,0.0
6.870052682934329,-5.120003700256348,-5.119996070861816,-0.0012498474121098724,0.0,0.0,0.0
6.872437446145341,20.47998809814453,-15.360014915466309,0.0012506866455073151,0.0,0.0,0.0
6.87465142714791,10.239999771118164,-7.62939453125e-06,4.196166987213701e-07,0.0,0.0,0.0
6.877335635013878,5.119992256164551,-10.24000358581543,0.0006250762939448151,0.0,0.0,0.0
6.879630115116015,-10.239995956420898,5.120007514953613,-0.0012498474121098724,0.0,0.0,0.0
6.881898059044033,-5.119996070861816,5.120003700256348,-0.0012498474121098724,0.0,0.0,0.0
6.884020674973726,-10.239999771118164,7.62939453125e-06,-0.0012498474121098724,0.0,0.0,0.0
6.886096653994173,-10.239992141723633,10.240007400512695,-0.0037494277954106536,0.0,0.0,0.0
6.888175978092477,-10.239999771118164,7.62939453125e-06,-0.00249916076660206,0.0,0.0,0.0
6.890245975926518,5.119992256164551,-10.24000358581543,0.0012506866455073151,0.0,0.0,0.0
6.892695273971185,-5.119996070861816,5.120003700256348,0.0012506866455073151,0.0,0.0,0.0
6.894618404097855,0.0,0.0,0.0012506866455073151,0.0,0.0,0.0
6.896764304023236,-10.239992141723633,10.240007400512695,-0.0012498474121098724,0.0,0.0,0.0
6.900026140036061,5.119997978210449,-2.5600037574768066,4.196166987213701e-07,0.0,0.0,0.0
6.902238882146776,5.119996070861816,-5.120003700256348,0.0012506866455073151,0.0,0.0,0.0
6.90414481703192,-10.239986419677734,15.360007286071777,-0.00249916076660206,0.0,0.0,0.0
6.906228020088747,15.3599853515625,-20.480010986328125,0.00500053405761669,0.0,0.0,0.0
6.9082405851222575,5.119992256164551,-10.24000358581543,0.0012506866455073151,0.0,0.0,0.0
6.910416983067989,-5.119996070861816,5.120003700256348,-0.0037494277954106536,0.0,0.0,0.0
6.912493051029742,-5.119999885559082,3.814697265625e-06,0.0012506866455073151,0.0,0.0,0.0
6.914528493070975,10.239992141723633,-10.240007400512695,0.0012506866455073151,0.0,0.0,0.0
6.916560478042811,5.119996070861816,-5.120003700256348,0.0012506866455073151,0.0,0.0,0.0
6.918876454932615,0.0,0.0,-0.0012498474121098724,0.0,0.0,0.0
6.921695926925167,2.5599918365478516,-10.240001678466797,0.0012506866455073151,0.0,0.0,0.0
6.923953332938254,5.119992256164551,-10.24000358581543,0.0012506866455073151,0.0,0.0,0.0
6.926736503141001,-5.120003700256348,-5.119996070861816,0.0012506866455073151,0.0,0.0,0.0
6.9288894350174814,15.359987258911133,-15.36001205444336,0.0012506866455073151,0.0,0.0,0.0
6.931058421963826,-5.120003700256348,-5.119996070861816,0.0012506866455073151,0.0,0.0,0.0
6.9331887101288885,5.120003700256348,5.119996070861816,4.196166987213701e-07,0.0,0.0,0.0
6.935338984010741,7.62939453125e-06,10.239999771118164,4.196166987213701e-07,0.0,0.0,0.0
6.937410016078502,0.0,0.0,-0.0012498474121098724,0.0,0.0,0.0
6.93943761405535,-10.239986419677734,15.360007286071777,-0.0012498474121098724,0.0,0.0,0.0
6.941604463150725,0.0,0.0,0.0012506866455073151,0.0,0.0,0.0
6.943683768156916,5.119992256164551,-10.24000358581543,0.0012506866455073151,0.0,0.0,0.0
6.946544182952493,-5.119992256164551,10.24000358581543,-0.00249916076660206,0.0,0.0,0.0
6.9487677230499685,0.0,0.0,-0.0012498474121098724,0.0,0.0,0.0
6.950942808063701,-10.239992141723633,10.240007400512695,-0.0012498474121098724,0.0,0.0,0.0
6.953068003989756,5.119992256164551,-10.24000358581543,0.0024999999999995026,0.0,0.0,0.0
6.955168792977929,-5.119996070861816,5.120003700256348,-0.0037494277954106536,0.0,0.0,0.0
6.957028943113983,5.119999885559082,-3.814697265625e-06,4.196166987213701e-07,0.0,0.0,0.0
6.959030634956434,10.239999771118164,-7.62939453125e-06,0.0024999999999995026,0.0,0.0,0.0
6.961066433927044,-5.119999885559082,3.814697265625e-06,4.196166987213701e-07,0.0,0.0,0.0
6.963387358002365,-3.814697265625e-06,-5.119999885559082,4.196166987213701e-07,0.0,0.0,0.0
6.965639360947534,-5.119999885559082,3.814697265625e-06,4.196166987213701e-07,0.0,0.0,0.0
6.967821482103318,-5.119996070861816,5.120003700256348,-0.0012498474121098724,0.0,0.0,0.0
6.970114273950458,5.119992256164551,-10.24000358581543,0.0024999999999995026,0.0,0.0,0.0
6.972148078028113,-10.239992141723633,10.240007400512695,-0.0012498474121098724,0.0,0.0,0.0
6.974388701142743,15.359991073608398,-10.240012168884277,0.0037502670288080964,0.0,0.0,0.0
6.9765951139852405,-15.359991073608398,10.240012168884277,-0.0012498474121098724,0.0,0.0,0.0
6.978714023018256,-5.119992256164551,10.24000358581543,-0.00249916076660206,0.0,0.0,0.0
6.983024846995249,2.559999942779541,-1.9073486328125e-06,0.00031322479247997137,0.0,0.0,0.0
6.985694494098425,-5.119997978210449,2.5600037574768066,4.196166987213701e-07,0.0,0.0,0.0
6.987992767943069,-5.119996070861816,5.120003700256348,-0.00249916076660206,0.0,0.0,0.0
6.989773395005614,5.119999885559082,-3.814697265625e-06,0.0012506866455073151,0.0,0.0,0.0
6.991770728025585,0.0,0.0,-0.0012498474121098724,0.0,0.0,0.0
6.993818240938708,10.239995956420898,-5.120007514953613,0.0012506866455073151,0.0,0.0,0.0
6.995861846022308,-3.814697265625e-06,-5.119999885559082,-0.0012498474121098724,0.0,0.0,0.0
6.997881860937923,-5.119996070861816,5.120003700256348,-0.0012498474121098724,0.0,0.0,0.0
6.99993876600638,5.120003700256348,5.119996070861816,0.0012506866455073151,0.0,0.0,0.0
7.002013255143538,-15.359987258911133,15.36001205444336,-0.004999694824219247,0.0,0.0,0.0
7.003975654952228,-5.119996070861816,5.120003700256348,-0.00249916076660206,0.0,0.0,0.0
7.006035583093762,-5.119987487792969,15.360003471374512,-0.0037494277954106536,0.0,0.0,0.0
7.008205864112824,10.239995956420898,-5.120007514953613,0.0012506866455073151,0.0,0.0,0.0
7.010380780091509,5.120003700256348,5.119996070861816,4.196166987213701e-07,0.0,0.0,0.0
7.012518547009677,-5.119996070861816,5.120003700256348,-0.0012498474121098724,0.0,0.0,0.0
7.014707766938955,3.814697265625e-06,5.119999885559082,4.196166987213701e-07,0.0,0.0,0.0
7.016897327965125,0.0,0.0,-0.0012498474121098724,0.0,0.0,0.0
7.01907889614813,-3.814697265625e-06,-5.119999885559082,0.0012506866455073151,0.0,0.0,0.0
7.021183145930991,10.239992141723633,-10.240007400512695,0.0024999999999995026,0.0,0.0,0.0
7.023240264039487,3.814697265625e-06,5.119999885559082,4.196166987213701e-07,0.0,0.0,0.0
7.026170667959377,2.559999942779541,-1.9073486328125e-06,4.196166987213701e-07,0.0,0.0,0.0
7.02824118710123,-3.814697265625e-06,-5.119999885559082,-0.0012498474121098724,0.0,0.0,0.0
7.030539377126843,-10.239995956420898,5.120007514953613,-0.0012498474121098724,0.0,0.0,0.0
7.033163995947689,3.814697265625e-06,5.119999885559082,-0.0012498474121098724,0.0,0.0,0.0
7.035268668085337,7.62939453125e-06,10.239999771118164,-0.0012498474121098724,0.0,0.0,0.0
7.037328381091356,5.119996070861816,-5.120003700256348,0.0012506866455073151,0.0,0.0,0.0
7.041139302076772,-2.559999942779541,1.9073486328125e-06,4.196166987213701e-07,0.0,0.0,0.0
7.044806338148192,-1.9073486328125e-06,-2.559999942779541,4.196166987213701e-07,0.0,0.0,0.0
7.048486014129594,0.0,0.0,4.196166987213701e-07,0.0,0.0,0.0
7.052160557126626,-2.5599961280822754,5.120001792907715,-0.0006242370605473724,0.0,0.0,0.0
7.054266947088763,0.0,0.0,0.0012506866455073151,0.0,0.0,0.0
7.0579832680523396,5.119997978210449,-2.5600037574768066,0.0006250762939448151,0.0,0.0,0.0
7.061301053036004,0.0,0.0,4.196166987213701e-07,0.0,0.0,0.0
7.064769389107823,-1.9073486328125e-06,-2.559999942779541,-0.0006242370605473724,0.0,0.0,0.0
7.066821808926761,-5.119999885559082,3.814697265625e-06,4.196166987213701e-07,0.0,0.0,0.0
7.068790076998994,5.119996070861816,-5.120003700256348,0.0012506866455073151,0.0,0.0,0.0
7.070601393934339,5.119992256164551,-10.24000358581543,4.196166987213701e-07,0.0,0.0,0.0
7.072695522103459,7.62939453125e-06,10.239999771118164,4.196166987213701e-07,0.0,0.0,0.0
7.074571849079803,-10.239992141723633,10.240007400512695,-0.00249916076660206,0.0,0.0,0.0
7.076625993009657,5.119999885559082,-3.814697265625e-06,4.196166987213701e-07,0.0,0.0,0.0
7.078651288058609,10.239992141723633,-10.240007400512695,0.0037502670288080964,0.0,0.0,0.0
7.080740421079099,10.239999771118164,-7.62939453125e-06,0.0012506866455073151,0.0,0.0,0.0
7.082825260935351,10.239995956420898,-5.120007514953613,4.196166987213701e-07,0.0,0.0,0.0
7.0852360560093075,5.120003700256348,5.119996070861816,4.196166987213701e-07,0.0,0.0,0.0
7.087392247049138,3.814697265625e-06,5.119999885559082,-0.0012498474121098724,0.0,0.0,0.0
7.089510403107852,10.239992141723633,-10.240007400512695,0.0012506866455073151,0.0,0.0,0.0
7.091410047141835,-10.239992141723633,10.240007400512695,-0.00249916076660206,0.0,0.0,0.0
7.093478295952082,5.119996070861816,-5.120003700256348,0.0024999999999995026,0.0,0.0,0.0
7.095488211140037,-5.119996070861816,5.120003700256348,4.196166987213701e-07,0.0,0.0,0.0
7.09754702495411,10.239995956420898,-5.120007514953613,0.0024999999999995026,0.0,0.0,0.0
7.100306492066011,-7.679986953735352,15.360006332397461,-0.00249916076660206,0.0,0.0,0.0
7.102365340106189,3.814697265625e-06,5.119999885559082,4.196166987213701e-07,0.0,0.0,0.0
7.104428549064323,5.119992256164551,-10.24000358581543,0.0024999999999995026,0.0,0.0,0.0
7.106471200939268,-5.119992256164551,10.24000358581543,-0.00249916076660206,0.0,0.0,0.0
7.108514235122129,5.119996070861816,-5.120003700256348,0.0012506866455073151,0.0,0.0,0.0
7.110596849117428,-7.62939453125e-06,-10.239999771118164,0.0012506866455073151,0.0,0.0,0.0
7.112613686127588,-3.814697265625e-06,-5.119999885559082,0.0024999999999995026,0.0,0.0,0.0
7.115577277960256,0.0,0.0,0.0018753433227534089,0.0,0.0,0.0
7.117656487040222,15.35999584197998,-5.120012283325195,0.0012506866455073151,0.0,0.0,0.0
7.119723204988986,10.239986419677734,-15.360007286071777,0.0024999999999995026,0.0,0.0,0.0
7.121932012960315,-3.814697265625e-06,-5.119999885559082,4.196166987213701e-07,0.0,0.0,0.0
7.124369635945186,5.120003700256348,5.119996070861816,-0.0012498474121098724,0.0,0.0,0.0
7.1266841581091285,3.814697265625e-06,5.119999885559082,0.0012506866455073151,0.0,0.0,0.0
7.128956625936553,-5.119996070861816,5.120003700256348,-0.0012498474121098724,0.0,0.0,0.0
7.131152901099995,0.0,0.0,-0.0012498474121098724,0.0,0.0,0.0
7.133380548097193,5.119996070861816,-5.120003700256348,0.0012506866455073151,0.0,0.0,0.0
7.135516067035496,5.119999885559082,-3.814697265625e-06,4.196166987213701e-07,0.0,0.0,0.0
7.137632989091799,-10.239984512329102,20.48000717163086,-0.00249916076660206,0.0,0.0,0.0
7.13973205909133,-5.119987487792969,15.360003471374512,-0.00249916076660206,0.0,0.0,0.0
7.141824750928208,0.0,0.0,4.196166987213701e-07,0.0,0.0,0.0
7.143861226039007,5.119996070861816,-5.120003700256348,0.0024999999999995026,0.0,0.0,0.0
7.146035732934251,10.239992141723633,-10.240007400512695,0.0012506866455073151,0.0,0.0,0.0
7.147990782046691,10.239984512329102,-20.48000717163086,0.0037502670288080964,0.0,0.0,0.0
7.150004815077409,10.239992141723633,-10.240007400512695,0.0024999999999995026,0.0,0.0,0.0
7.152030639117584,-10.239992141723633,10.240007400512695,-0.00249916076660206,0.0,0.0,0.0
7.153961426112801,-5.119992256164551,10.24000358581543,-0.0012498474121098724,0.0,0.0,0.0
7.156016248976812,-10.239984512329102,20.48000717163086,-0.0037494277954106536,0.0,0.0,0.0
7.158292677951977,-3.814697265625e-06,-5.119999885559082,-0.0012498474121098724,0.0,0.0,0.0
7.160372029058635,15.359991073608398,-10.240012168884277,0.0037502670288080964,0.0,0.0,0.0
7.162425976945087,-3.814697265625e-06,-5.119999885559082,0.0012506866455073151,0.0,0.0,0.0
7.164497927995399,10.239986419677734,-15.360007286071777,0.0024999999999995026,0.0,0.0,0.0
7.166533299954608,7.62939453125e-06,10.239999771118164,4.196166987213701e-07,0.0,0.0,0.0
7.168591410154477,-5.119999885559082,3.814697265625e-06,-0.00249916076660206,0.0,0.0,0.0
7.170656034955755,5.119999885559082,-3.814697265625e-06,4.196166987213701e-07,0.0,0.0,0.0
7.174247547052801,-5.119997978210449,2.5600037574768066,-0.0012498474121098724,0.0,0.0,0.0
7.1763919540680945,10.239992141723633,-10.240007400512695,0.0024999999999995026,0.0,0.0,0.0
7.178251970093697,-5.119992256164551,10.24000358581543,4.196166987213701e-07,0.0,0.0,0.0
7.181239316938445,5.119996070861816,-5.120003700256348,0.0012506866455073151,0.0,0.0,0.0
7.183470802148804,-3.814697265625e-06,-5.119999885559082,0.0012506866455073151,0.0,0.0,0.0
7.185776313999668,5.120003700256348,5.119996070861816,4.196166987213701e-07,0.0,0.0,0.0
7.18797609093599,-5.119999885559082,3.814697265625e-06,-0.00249916076660206,0.0,0.0,0.0
7.190035067964345,5.119999885559082,-3.814697265625e-06,0.0012506866455073151,0.0,0.0,0.0
7.192373292986304,-10.239995956420898,5.120007514953613,-0.0037494277954106536,0.0,0.0,0.0
7.195074460934848,-2.5600037574768066,-5.119997978210449,0.0006250762939448151,0.0,0.0,0.0
7.198177485959604,-10.239992141723633,10.240007400512695,-0.0018745040893559661,0.0,0.0,0.0
7.200291684130207,-5.119992256164551,10.24000358581543,4.196166987213701e-07,0.0,0.0,0.0
7.202338594011962,0.0,0.0,4.196166987213701e-07,0.0,0.0,0.0
7.204358831979334,-10.239986419677734,15.360007286071777,-0.00249916076660206,0.0,0.0,0.0
7.207014634041116,-5.119992256164551,10.24000358581543,-0.0012498474121098724,0.0,0.0,0.0
7.210908841108903,-3.839996337890625,5.120002746582031,4.196166987213701e-07,0.0,0.0,0.0
7.214555769925937,-2.559998035430908,2.560001850128174,-0.0006242370605473724,0.0,0.0,0.0
7.21714778104797,2.559998035430908,-2.560001850128174,0.0006250762939448151,0.0,0.0,0.0
7.219568158034235,-5.119992256164551,10.24000358581543,-0.0012498474121098724,0.0,0.0,0.0
7.222079789964482,5.119996070861816,-5.120003700256348,4.196166987213701e-07,0.0,0.0,0.0
7.224214053945616,-10.239992141723633,10.240007400512695,-0.00249916076660206,0.0,0.0,0.0
7.22629992896691,-5.119992256164551,10.24000358581543,-0.0012498474121098724,0.0,0.0,0.0
7.228338431101292,5.119999885559082,-3.814697265625e-06,0.0012506866455073151,0.0,0.0,0.0
7.230456667020917,0.0,0.0,0.0012506866455073151,0.0,0.0,0.0
7.232537453994155,10.239986419677734,-15.360007286071777,0.0024999999999995026,0.0,0.0,0.0
7.234642521012574,0.0,0.0,-0.0012498474121098724,0.0,0.0,0.0
7.23669414408505,5.119996070861816,-5.120003700256348,0.0012506866455073151,0.0,0.0,0.0
7.238814617041498,-10.239995956420898,5.120007514953613,-0.0012498474121098724,0.0,0.0,0.0
7.240931196138263,-15.3599853515625,20.480010986328125,-0.00249916076660206,0.0,0.0,0.0
7.243088166927919,10.239992141723633,-10.240007400512695,0.0024999999999995026,0.0,0.0,0.0
7.245207600994036,-5.119992256164551,10.24000358581543,-0.00249916076660206,0.0,0.0,0.0
7.24737799493596,-10.239992141723633,10.240007400512695,-0.0012498474121098724,0.0,0.0,0.0
7.249508803943172,10.239992141723633,-10.240007400512695,0.0024999999999995026,0.0,0.0,0.0
7.251720915082842,5.119999885559082,-3.814697265625e-06,4.196166987213701e-07,0.0,0.0,0.0
7.25382439000532,5.119992256164551,-10.24000358581543,0.0024999999999995026,0.0,0.0,0.0
7.255971298087388,5.119996070861816,-5.120003700256348,4.196166987213701e-07,0.0,0.0,0.0
7.258165612118319,5.119999885559082,-3.814697265625e-06,-0.0012498474121098724,0.0,0.0,0.0
7.260341358138248,15.3599853515625,-20.480010986328125,0.0037502670288080964,0.0,0.0,0.0
7.262454953044653,-5.119996070861816,5.120003700256348,-0.0012498474121098724,0.0,0.0,0.0
7.264505313942209,3.814697265625e-06,5.119999885559082,4.196166987213701e-07,0.0,0.0,0.0
7.266551006119698,7.62939453125e-06,10.239999771118164,-0.0012498474121098724,0.0,0.0,0.0
7.268750488990918,-5.119996070861816,5.120003700256348,-0.0012498474121098724,0.0,0.0,0.0
7.270826738094911,10.239999771118164,-7.62939453125e-06,0.0024999999999995026,0.0,0.0,0.0
7.272865272127092,5.119996070861816,-5.120003700256348,0.0012506866455073151,0.0,0.0,0.0
7.274902394972742,-5.119999885559082,3.814697265625e-06,-0.0012498474121098724,0.0,0.0,0.0
7.277030972996727,3.814697265625e-06,5.119999885559082,4.196166987213701e-07,0.0,0.0,0.0
7.279948760056868,10.239992141723633,-10.240007400512695,0.0018753433227534089,0.0,0.0,0.0
7.2820952869951725,-10.239992141723633,10.240007400512695,-0.0012498474121098724,0.0,0.0,0.0
7.284220874076709,-5.119992256164551,10.24000358581543,4.196166987213701e-07,0.0,0.0,0.0
7.287046147976071,7.679999828338623,-6.198883056640625e-06,0.0012506866455073151,0.0,0.0,0.0
7.28911925596185,-15.359987258911133,15.36001205444336,-0.00249916076660206,0.0,0.0,0.0
7.291145144961774,-5.119992256164551,10.24000358581543,-0.00249916076660206,0.0,0.0,0.0
7.293278235942125,-25.599977493286133,25.600021362304688,-0.0037494277954106536,0.0,0.0,0.0
7.295437606982887,10.239992141723633,-10.240007400512695,0.0024999999999995026,0.0,0.0,0.0
7.2975912790279835,-5.120003700256348,-5.119996070861816,4.196166987213701e-07,0.0,0.0,0.0
7.299874822143465,5.119999885559082,-3.814697265625e-06,-0.0012498474121098724,0.0,0.0,0.0
7.301985183963552,5.119999885559082,-3.814697265625e-06,-0.0012498474121098724,0.0,0.0,0.0
7.304172459989786,0.0,0.0,0.0012506866455073151,0.0,0.0,0.0
7.306391973979771,3.814697265625e-06,5.119999885559082,-0.0012498474121098724,0.0,0.0,0.0
7.308486653026193,5.119996070861816,-5.120003700256348,0.0037502670288080964,0.0,0.0,0.0
7.310511826071888,3.814697265625e-06,5.119999885559082,4.196166987213701e-07,0.0,0.0,0.0
7.312618212075904,0.0,0.0,4.196166987213701e-07,0.0,0.0,0.0
7.314553616102785,-3.814697265625e-06,-5.119999885559082,0.0024999999999995026,0.0,0.0,0.0
7.316573099000379,3.814697265625e-06,5.119999885559082,4.196166987213701e-07,0.0,0.0,0.0
7.318769209086895,-3.814697265625e-06,-5.119999885559082,0.0012506866455073151,0.0,0.0,0.0
7.32053532009013,-10.239992141723633,10.240007400512695,-0.00249916076660206,0.0,0.0,0.0
7.322578349150717,-15.359991073608398,10.240012168884277,-0.0037494277954106536,0.0,0.0,0.0
7.32473713112995,15.359987258911133,-15.36001205444336,0.0037502670288080964,0.0,0.0,0.0
7.327488111099228,7.679995536804199,-5.120006084442139,0.0006250762939448151,0.0,0.0,0.0
7.329765496077016,7.62939453125e-06,10.239999771118164,-0.00249916076660206,0.0,0.0,0.0
7.333751577185467,-2.5599961280822754,5.120001792907715,-0.0006242370605473724,0.0,0.0,0.0
7.3363424183335155,0.0,0.0,4.196166987213701e-07,0.0,0.0,0.0
7.338316386332735,-5.119996070861816,5.120003700256348,4.196166987213701e-07,0.0,0.0,0.0
7.340371128171682,20.479984283447266,-20.48001480102539,0.00500053405761669,0.0,0.0,0.0
7.342422705376521,5.119996070861816,-5.120003700256348,0.0012506866455073151,0.0,0.0,0.0
7.344477383187041,-5.119999885559082,3.814697265625e-06,-0.0012498474121098724,0.0,0.0,0.0
7.346598543226719,-5.119987487792969,15.360003471374512,-0.00249916076660206,0.0,0.0,0.0
7.350771590135992,-1.2799999713897705,9.5367431640625e-07,4.196166987213701e-07,0.0,0.0,0.0
7.354437492089346,2.559998035430908,-2.560001850128174,0.00031322479247997137,0.0,0.0,0.0
7.357329080114141,2.559998035430908,-2.560001850128174,-0.0006242370605473724,0.0,0.0,0.0
7.3591414170805365,-5.119996070861816,5.120003700256348,0.0012506866455073151,0.0,0.0,0.0
7.361478138016537,-5.119992256164551,10.24000358581543,-0.0012498474121098724,0.0,0.0,0.0
7.364161919103935,7.680003643035889,5.119993209838867,-0.0006242370605473724,0.0,0.0,0.0
7.367913636146113,5.119997978210449,-2.5600037574768066,0.0006250762939448151,0.0,0.0,0.0
7.370503561105579,5.119996070861816,-5.120003700256348,0.0006250762939448151,0.0,0.0,0.0
7.372547143138945,-7.62939453125e-06,-10.239999771118164,0.0012506866455073151,0.0,0.0,0.0
7.374682987108827,7.62939453125e-06,10.239999771118164,-0.0012498474121098724,0.0,0.0,0.0
7.376634370069951,-5.119992256164551,10.24000358581543,-0.0012498474121098724,0.0,0.0,0.0
7.378657085122541,-1.239776611328125e-05,-15.359999656677246,-0.0012498474121098724,0.0,0.0,0.0
7.38271042634733,-2.559998035430908,2.560001850128174,4.196166987213701e-07,0.0,0.0,0.0
7.386457225307822,-1.2799999713897705,9.5367431640625e-07,-0.00031238555908252863,0.0,0.0,0.0
7.389328163350001,-2.560001850128174,-2.559998035430908,-0.0006242370605473724,0.0,0.0,0.0
7.392208045348525,-2.5599961280822754,5.120001792907715,-0.0012498474121098724,0.0,0.0,0.0
7.3963226759806275,-5.119999885559082,3.814697265625e-06,0.00031322479247997137,0.0,0.0,0.0
7.3985406591091305,2.559999942779541,-1.9073486328125e-06,4.196166987213701e-07,0.0,0.0,0.0
7.400609371019527,-3.814697265625e-06,-5.119999885559082,0.0012506866455073151,0.0,0.0,0.0
7.402658652048558,20.479984283447266,-20.48001480102539,0.00500053405761669,0.0,0.0,0.0
7.404665631009266,-15.359987258911133,15.36001205444336,-0.0037494277954106536,0.0,0.0,0.0
7.407560311025009,7.679995536804199,-5.120006084442139,0.0018753433227534089,0.0,0.0,0.0
7.409749204991385,3.814697265625e-06,5.119999885559082,-0.00249916076660206,0.0,0.0,0.0
7.411653073038906,-10.239984512329102,20.48000717163086,-0.00249916076660206,0.0,0.0,0.0
7.413745466154069,-10.239995956420898,5.120007514953613,-0.00249916076660206,0.0,0.0,0.0
7.415838390123099,-10.239992141723633,10.240007400512695,-0.0037494277954106536,0.0,0.0,0.0
7.417945457156748,10.239995956420898,-5.120007514953613,0.0012506866455073151,0.0,0.0,0.0
7.420014386996627,-5.119996070861816,5.120003700256348,-0.00249916076660206,0.0,0.0,0.0
7.422086664009839,3.814697265625e-06,5.119999885559082,4.196166987213701e-07,0.0,0.0,0.0
7.424156282097101,-5.119987487792969,15.360003471374512,-0.00249916076660206,0.0,0.0,0.0
7.426336850039661,3.814697265625e-06,5.119999885559082,4.196166987213701e-07,0.0,0.0,0.0
7.4284603169653565,10.239986419677734,-15.360007286071777,0.0024999999999995026,0.0,0.0,0.0
7.430520789930597,5.119992256164551,-10.24000358581543,0.0012506866455073151,0.0,0.0,0.0
7.432624300010502,3.814697265625e-06,5.119999885559082,4.196166987213701e-07,0.0,0.0,0.0
7.43477923492901,20.479984283447266,-20.48001480102539,0.0024999999999995026,0.0,0.0,0.0
7.436948748072609,3.814697265625e-06,5.119999885559082,-0.0012498474121098724,0.0,0.0,0.0
7.438912034966052,5.119992256164551,-10.24000358581543,4.196166987213701e-07,0.0,0.0,0.0
7.440930407028645,-5.119983673095703,20.480003356933594,-0.00249916076660206,0.0,0.0,0.0
7.443018464138731,-10.239986419677734,15.360007286071777,-0.004999694824219247,0.0,0.0,0.0
7.445153384003788,5.119996070861816,-5.120003700256348,4.196166987213701e-07,0.0,0.0,0.0
7.447251649107784,-5.119999885559082,3.814697265625e-06,4.196166987213701e-07,0.0,0.0,0.0
7.449415625073016,0.0,0.0,0.0012506866455073151,0.0,0.0,0.0
7.452308414969593,-3.814697265625e-06,-5.119999885559082,0.0006250762939448151,0.0,0.0,0.0
7.4545959029346704,-3.814697265625e-06,-5.119999885559082,4.196166987213701e-07,0.0,0.0,0.0
7.456801314139739,-10.239986419677734,15.360007286071777,-0.0012498474121098724,0.0,0.0,0.0
7.458985595032573,-5.119987487792969,15.360003471374512,-0.00249916076660206,0.0,0.0,0.0
7.4611622570082545,-5.119992256164551,10.24000358581543,4.196166987213701e-07,0.0,0.0,0.0
7.46336390892975,-10.239992141723633,10.240007400512695,-0.0012498474121098724,0.0,0.0,0.0
7.46551727107726,-5.119987487792969,15.360003471374512,-0.0037494277954106536,0.0,0.0,0.0
7.467611884931102,-5.119996070861816,5.120003700256348,-0.0012498474121098724,0.0,0.0,0.0
7.4696837139781564,0.0,0.0,-0.0012498474121098724,0.0,0.0,0.0
7.47180869593285,-5.119996070861816,5.120003700256348,4.196166987213701e-07,0.0,0.0,0.0
7.473858942044899,5.119999885559082,-3.814697265625e-06,-0.0012498474121098724,0.0,0.0,0.0
7.475963535020128,3.814697265625e-06,5.119999885559082,-0.00249916076660206,0.0,0.0,0.0
7.478054650127888,15.359987258911133,-15.36001205444336,0.0024999999999995026,0.0,0.0,0.0
7.480125478003174,5.119996070861816,-5.120003700256348,4.196166987213701e-07,0.0,0.0,0.0
7.4822292199824005,5.119996070861816,-5.120003700256348,-0.0012498474121098724,0.0,0.0,0.0
7.484378030989319,-5.119992256164551,10.24000358581543,-0.0012498474121098724,0.0,0.0,0.0
7.486374484142289,5.119999885559082,-3.814697265625e-06,0.0012506866455073151,0.0,0.0,0.0
7.4882703400217,-7.62939453125e-06,-10.239999771118164,0.0012506866455073151,0.0,0.0,0.0
7.490316838026047,15.35999584197998,-5.120012283325195,0.0012506866455073151,0.0,0.0,0.0
7.4924508810509,5.119999885559082,-3.814697265625e-06,4.196166987213701e-07,0.0,0.0,0.0
7.49464812502265,-3.814697265625e-06,-5.119999885559082,0.0012506866455073151,0.0,0.0,0.0
7.496783852111548,5.119996070861816,-5.120003700256348,4.196166987213701e-07,0.0,0.0,0.0
7.500102567952126,2.5599961280822754,-5.120001792907715,4.196166987213701e-07,0.0,0.0,0.0
7.502839785069227,2.559998035430908,-2.560001850128174,4.196166987213701e-07,0.0,0.0,0.0
7.50497383903712,-5.119996070861816,5.120003700256348,-0.0012498474121098724,0.0,0.0,0.0
7.507047486957163,3.814697265625e-06,5.119999885559082,4.196166987213701e-07,0.0,0.0,0.0
7.509104585973546,-10.239986419677734,15.360007286071777,-0.00249916076660206,0.0,0.0,0.0
7.511257207021117,-3.814697265625e-06,-5.119999885559082,-0.0012498474121098724,0.0,0.0,0.0
7.513326309155673,3.814697265625e-06,5.119999885559082,-0.0012498474121098724,0.0,0.0,0.0
7.5153319030068815,-15.3599853515625,20.480010986328125,-0.0037494277954106536,0.0,0.0,0.0
7.5174256530590355,0.0,0.0,-0.0012498474121098724,0.0,0.0,0.0
7.519553509075195,-5.119999885559082,3.814697265625e-06,-0.0012498474121098724,0.0,0.0,0.0
7.521656576078385,-10.239984512329102,20.48000717163086,-0.004999694824219247,0.0,0.0,0.0
7.523703240090981,-15.359987258911133,15.36001205444336,-0.00249916076660206,0.0,0.0,0.0
7.525758794974536,-10.239992141723633,10.240007400512695,-0.00249916076660206,0.0,0.0,0.0
7.528067974140868,3.814697265625e-06,5.119999885559082,4.196166987213701e-07,0.0,0.0,0.0
7.530464773066342,5.119992256164551,-10.24000358581543,0.0024999999999995026,0.0,0.0,0.0
7.533279522089288,-5.119996070861816,5.120003700256348,-0.0012498474121098724,0.0,0.0,0.0
7.535347616998479,3.814697265625e-06,5.119999885559082,-0.0012498474121098724,0.0,0.0,0.0
7.537489661946893,5.119992256164551,-10.24000358581543,0.0037502670288080964,0.0,0.0,0.0
7.539644170086831,-10.239986419677734,15.360007286071777,-0.00249916076660206,0.0,0.0,0.0
7.541659781942144,5.119999885559082,-3.814697265625e-06,0.0012506866455073151,0.0,0.0,0.0
7.543828964000568,5.119996070861816,-5.120003700256348,0.0012506866455073151,0.0,0.0,0.0
7.546025829156861,-5.119992256164551,10.24000358581543,-0.0012498474121098724,0.0,0.0,0.0
7.54828040394932,10.239992141723633,-10.240007400512695,0.0012506866455073151,0.0,0.0,0.0
7.550528455059975,-15.359991073608398,10.240012168884277,-0.0012498474121098724,0.0,0.0,0.0
7.552695861086249,-3.814697265625e-06,-5.119999885559082,4.196166987213701e-07,0.0,0.0,0.0
7.554850877029821,5.119992256164551,-10.24000358581543,0.0024999999999995026,0.0,0.0,0.0
7.556852447101846,5.119992256164551,-10.24000358581543,0.0012506866455073151,0.0,0.0,0.0
7.558903423137963,0.0,0.0,0.0012506866455073151,0.0,0.0,0.0
7.560996852116659,-5.119996070861816,5.120003700256348,-0.0012498474121098724,0.0,0.0,0.0
7.563039465108886,10.239995956420898,-5.120007514953613,0.0012506866455073151,0.0,0.0,0.0
7.565102372085676,5.119999885559082,-3.814697265625e-06,4.196166987213701e-07,0.0,0.0,0.0
7.567059470107779,-5.119999885559082,3.814697265625e-06,-0.0012498474121098724,0.0,0.0,0.0
7.569100958993658,-7.62939453125e-06,-10.239999771118164,0.0012506866455073151,0.0,0.0,0.0
7.571169790113345,-10.239986419677734,15.360007286071777,-0.0037494277954106536,0.0,0.0,0.0
7.573219305137172,10.239986419677734,-15.360007286071777,0.0012506866455073151,0.0,0.0,0.0
7.575329478131607,5.119996070861816,-5.120003700256348,4.196166987213701e-07,0.0,0.0,0.0
7.5772860469296575,-15.359991073608398,10.240012168884277,-0.0037494277954106536,0.0,0.0,0.0
7.579308930085972,-10.239992141723633,10.240007400512695,-0.00249916076660206,0.0,0.0,0.0
7.581497186096385,10.239999771118164,-7.62939453125e-06,4.196166987213701e-07,0.0,0.0,0.0
7.5837214950006455,5.119999885559082,-3.814697265625e-06,4.196166987213701e-07,0.0,0.0,0.0
7.586018014932051,0.0,0.0,4.196166987213701e-07,0.0,0.0,0.0
7.588207012973726,15.359991073608398,-10.240012168884277,0.0024999999999995026,0.0,0.0,0.0
7.5905166261363775,-5.119992256164551,10.24000358581543,-0.0012498474121098724,0.0,0.0,0.0
7.59261884004809,10.239992141723633,-10.240007400512695,0.0012506866455073151,0.0,0.0,0.0
7.594737160950899,-15.359987258911133,15.36001205444336,-0.0037494277954106536,0.0,0.0,0.0
7.596828832989559,5.119996070861816,-5.120003700256348,4.196166987213701e-07,0.0,0.0,0.0
7.599206425016746,10.239999771118164,-7.62939453125e-06,0.0012506866455073151,0.0,0.0,0.0
7.601392749929801,5.120003700256348,5.119996070861816,4.196166987213701e-07,0.0,0.0,0.0
7.603556494927034,-3.814697265625e-06,-5.119999885559082,0.0012506866455073151,0.0,0.0,0.0
7.605572934029624,-10.239992141723633,10.240007400512695,-0.0037494277954106536,0.0,0.0,0.0
7.608809242025018,10.239992141723633,-10.240007400512695,0.0024999999999995026,0.0,0.0,0.0
7.611848035128787,0.0,0.0,0.0006250762939448151,0.0,0.0,0.0
7.614394335076213,2.5599918365478516,-10.240001678466797,0.0012506866455073151,0.0,0.0,0.0
7.61647556303069,10.239986419677734,-15.360007286071777,0.0024999999999995026,0.0,0.0,0.0
7.618515362031758,0.0,0.0,0.0012506866455073151,0.0,0.0,0.0
7.620603907154873,0.0,0.0,-0.0012498474121098724,0.0,0.0,0.0
7.622622094117105,-5.119996070861816,5.120003700256348,-0.0012498474121098724,0.0,0.0,0.0
7.624636542983353,-3.814697265625e-06,-5.119999885559082,-0.0012498474121098724,0.0,0.0,0.0
7.626688741147518,3.814697265625e-06,5.119999885559082,-0.00249916076660206,0.0,0.0,0.0
7.6286814080085605,-10.239992141723633,10.240007400512695,-0.00249916076660206,0.0,0.0,0.0
7.630829147063196,-5.119999885559082,3.814697265625e-06,4.196166987213701e-07,0.0,0.0,0.0
7.632682742085308,-15.3599853515625,20.480010986328125,-0.00249916076660206,0.0,0.0,0.0
7.634876000927761,5.119999885559082,-3.814697265625e-06,4.196166987213701e-07,0.0,0.0,0.0
7.636932122055441,-10.239986419677734,15.360007286071777,-0.0037494277954106536,0.0,0.0,0.0
7.6389640520792454,5.119999885559082,-3.814697265625e-06,0.0012506866455073151,0.0,0.0,0.0
7.641014031134546,-5.119999885559082,3.814697265625e-06,4.196166987213701e-07,0.0,0.0,0.0
7.643063043011352,5.119999885559082,-3.814697265625e-06,4.196166987213701e-07,0.0,0.0,0.0
7.645071482053027,-20.479978561401367,25.60001564025879,-0.004999694824219247,0.0,0.0,0.0
7.6471301389392465,10.239986419677734,-15.360007286071777,0.0012506866455073151,0.0,0.0,0.0
7.649137464119121,10.239995956420898,-5.120007514953613,4.196166987213701e-07,0.0,0.0,0.0
7.651265470078215,-5.119992256164551,10.24000358581543,-0.0012498474121098724,0.0,0.0,0.0
7.6533905051182956,5.119999885559082,-3.814697265625e-06,4.196166987213701e-07,0.0,0.0,0.0
7.655462811002508,-10.239992141723633,10.240007400512695,4.196166987213701e-07,0.0,0.0,0.0
7.657533328980207,15.359987258911133,-15.36001205444336,0.0037502670288080964,0.0,0.0,0.0
7.660233023110777,-5.119999885559082,3.814697265625e-06,0.0012506866455073151,0.0,0.0,0.0
7.662410813150927,0.0,0.0,-0.0012498474121098724,0.0,0.0,0.0
7.664462682092562,-15.35999584197998,5.120012283325195,-0.0012498474121098724,0.0,0.0,0.0
7.666627840138972,5.119992256164551,-10.24000358581543,0.0012506866455073151,0.0,0.0,0.0
7.668597440933809,-10.239999771118164,7.62939453125e-06,-0.0012498474121098724,0.0,0.0,0.0
7.671775724971667,6.198883056640625e-06,7.679999828338623,0.0018753433227534089,0.0,0.0,0.0
7.673904556082562,5.119992256164551,-10.24000358581543,0.0012506866455073151,0.0,0.0,0.0
7.675966650946066,-5.119999885559082,3.814697265625e-06,-0.0012498474121098724,0.0,0.0,0.0
7.678009636932984,-5.119999885559082,3.814697265625e-06,4.196166987213701e-07,0.0,0.0,0.0
7.6800686900969595,-5.119996070861816,5.120003700256348,-0.00249916076660206,0.0,0.0,0.0
7.68220675108023,-3.814697265625e-06,-5.119999885559082,4.196166987213701e-07,0.0,0.0,0.0
7.684196037007496,-10.239995956420898,5.120007514953613,-0.0012498474121098724,0.0,0.0,0.0
7.6862387279979885,10.239992141723633,-10.240007400512695,0.0012506866455073151,0.0,0.0,0.0
7.688386905938387,5.119996070861816,-5.120003700256348,0.0024999999999995026,0.0,0.0,0.0
7.6915318900719285,2.560001850128174,2.559998035430908,0.0006250762939448151,0.0,0.0,0.0
7.6938133121002465,0.0,0.0,0.0012506866455073151,0.0,0.0,0.0
7.696041770046577,-5.119996070861816,5.120003700256348,-0.00249916076660206,0.0,0.0,0.0
7.698666942073032,0.0,0.0,4.196166987213701e-07,0.0,0.0,0.0
7.7008094729389995,0.0,0.0,4.196166987213701e-07,0.0,0.0,0.0
7.703018289059401,5.119999885559082,-3.814697265625e-06,0.0012506866455073151,0.0,0.0,0.0
7.70514031406492,10.239992141723633,-10.240007400512695,0.0012506866455073151,0.0,0.0,0.0
7.707167846150696,5.119992256164551,-10.24000358581543,4.196166987213701e-07,0.0,0.0,0.0
7.709238159004599,3.814697265625e-06,5.119999885559082,4.196166987213701e-07,0.0,0.0,0.0
7.711297475034371,10.239992141723633,-10.240007400512695,0.0012506866455073151,0.0,0.0,0.0
7.713513819966465,-5.119999885559082,3.814697265625e-06,0.0012506866455073151,0.0,0.0,0.0
7.715539386961609,-5.119999885559082,3.814697265625e-06,-0.0012498474121098724,0.0,0.0,0.0
7.717629214981571,-10.239995956420898,5.120007514953613,-0.00249916076660206,0.0,0.0,0.0
7.719817128032446,-5.119996070861816,5.120003700256348,-0.0012498474121098724,0.0,0.0,0.0
7.721963566029444,-5.119999885559082,3.814697265625e-06,-0.00249916076660206,0.0,0.0,0.0
7.724255471024662,3.814697265625e-06,5.119999885559082,-0.0012498474121098724,0.0,0.0,0.0
7.726547305006534,-5.119999885559082,3.814697265625e-06,-0.0012498474121098724,0.0,0.0,0.0
7.729091457091272,-3.814697265625e-06,-5.119999885559082,4.196166987213701e-07,0.0,0.0,0.0
7.731395703973249,5.119999885559082,-3.814697265625e-06,-0.0012498474121098724,0.0,0.0,0.0
7.733614454977214,10.239992141723633,-10.240007400512695,0.0024999999999995026,0.0,0.0,0.0
7.735803748946637,10.239992141723633,-10.240007400512695,0.0012506866455073151,0.0,0.0,0.0
7.738104118034244,5.119996070861816,-5.120003700256348,-0.0012498474121098724,0.0,0.0,0.0
7.739962344989181,-10.239999771118164,7.62939453125e-06,4.196166987213701e-07,0.0,0.0,0.0
7.741991210030392,10.239999771118164,-7.62939453125e-06,0.0024999999999995026,0.0,0.0,0.0
7.744218535954133,0.0,0.0,4.196166987213701e-07,0.0,0.0,0.0
7.7463494159746915,-5.120003700256348,-5.119996070861816,-0.0012498474121098724,0.0,0.0,0.0
7.748687983956188,5.119992256164551,-10.24000358581543,0.0012506866455073151,0.0,0.0,0.0
7.750861553940922,5.119992256164551,-10.24000358581543,0.0024999999999995026,0.0,0.0,0.0
7.752978187985718,5.119999885559082,-3.814697265625e-06,0.0012506866455073151,0.0,0.0,0.0
7.75487702107057,0.0,0.0,0.0012506866455073151,0.0,0.0,0.0
7.756883864989504,7.62939453125e-06,10.239999771118164,-0.0012498474121098724,0.0,0.0,0.0
7.758939762134105,-5.119996070861816,5.120003700256348,4.196166987213701e-07,0.0,0.0,0.0
7.76102248695679,-5.119996070861816,5.120003700256348,4.196166987213701e-07,0.0,0.0,0.0
7.763624625978991,-5.120003700256348,-5.119996070861816,0.0012506866455073151,0.0,0.0,0.0
7.765909635927528,-7.62939453125e-06,-10.239999771118164,0.0024999999999995026,0.0,0.0,0.0
7.768113725120202,-7.62939453125e-06,-10.239999771118164,0.0012506866455073151,0.0,0.0,0.0
7.770240093115717,3.814697265625e-06,5.119999885559082,-0.0012498474121098724,0.0,0.0,0.0
7.773286418989301,3.814697265625e-06,5.119999885559082,4.196166987213701e-07,0.0,0.0,0.0
7.775485696038231,5.119999885559082,-3.814697265625e-06,4.196166987213701e-07,0.0,0.0,0.0
7.777216627029702,-20.479984283447266,20.48001480102539,-0.0037494277954106536,0.0,0.0,0.0
7.779248187085614,15.3599853515625,-20.480010986328125,0.0024999999999995026,0.0,0.0,0.0
7.781364822061732,0.0,0.0,4.196166987213701e-07,0.0,0.0,0.0
7.783246224978939,-15.359991073608398,10.240012168884277,-0.0012498474121098724,0.0,0.0,0.0
7.785262488992885,5.119996070861816,-5.120003700256348,0.0012506866455073151,0.0,0.0,0.0
7.787294639041647,-3.814697265625e-06,-5.119999885559082,0.0012506866455073151,0.0,0.0,0.0
7.789240262005478,0.0,0.0,-0.0012498474121098724,0.0,0.0,0.0
7.791217335034162,-10.239992141723633,10.240007400512695,-0.00249916076660206,0.0,0.0,0.0
7.793203410925344,-5.119987487792969,15.360003471374512,-0.0012498474121098724,0.0,0.0,0.0
7.795208378927782,5.119996070861816,-5.120003700256348,4.196166987213701e-07,0.0,0.0,0.0
7.797189489006996,-5.119992256164551,10.24000358581543,4.196166987213701e-07,0.0,0.0,0.0
7.799327404936776,10.239999771118164,-7.62939453125e-06,4.196166987213701e-07,0.0,0.0,0.0
7.801158183021471,7.62939453125e-06,10.239999771118164,-0.0012498474121098724,0.0,0.0,0.0
7.803255209932104,10.239995956420898,-5.120007514953613,0.0012506866455073151,0.0,0.0,0.0
7.805230497149751,0.0,0.0,-0.00249916076660206,0.0,0.0,0.0
7.807204554090276,-10.239999771118164,7.62939453125e-06,-0.0012498474121098724,0.0,0.0,0.0
7.809370934031904,0.0,0.0,4.196166987213701e-07,0.0,0.0,0.0
7.811386730987579,-3.814697265625e-06,-5.119999885559082,0.0012506866455073151,0.0,0.0,0.0
7.813380113104358,5.119987487792969,-15.360003471374512,0.0012506866455073151,0.0,0.0,0.0
7.815514568937942,10.239992141723633,-10.240007400512695,0.0037502670288080964,0.0,0.0,0.0
7.817495326977223,10.239992141723633,-10.240007400512695,0.0024999999999995026,0.0,0.0,0.0
7.819500891957432,-10.239992141723633,10.240007400512695,-0.0012498474121098724,0.0,0.0,0.0
7.821497950935736,-10.239984512329102,20.48000717163086,-0.0037494277954106536,0.0,0.0,0.0
7.823491818970069,10.239992141723633,-10.240007400512695,0.0024999999999995026,0.0,0.0,0.0
7.825699012028053,7.62939453125e-06,10.239999771118164,4.196166987213701e-07,0.0,0.0,0.0
7.828787689097226,5.119997978210449,-2.5600037574768066,0.0012506866455073151,0.0,0.0,0.0
7.830840836046264,-5.119996070861816,5.120003700256348,-0.0012498474121098724,0.0,0.0,0.0
7.83288874104619,0.0,0.0,4.196166987213701e-07,0.0,0.0,0.0
7.834917205153033,-5.119996070861816,5.120003700256348,-0.0012498474121098724,0.0,0.0,0.0
7.837103207129985,-5.119996070861816,5.120003700256348,-0.0012498474121098724,0.0,0.0,0.0
7.840960357105359,-5.119997978210449,2.5600037574768066,-0.0012498474121098724,0.0,0.0,0.0
7.8439672430977225,-2.5599961280822754,5.120001792907715,-0.0012498474121098724,0.0,0.0,0.0
7.845955597003922,5.119999885559082,-3.814697265625e-06,0.0012506866455073151,0.0,0.0,0.0
7.847935511032119,0.0,0.0,-0.0012498474121098724,0.0,0.0,0.0
7.850844161119312,-3.814697265625e-06,-5.119999885559082,0.0006250762939448151,0.0,0.0,0.0
7.85294661601074,0.0,0.0,4.196166987213701e-07,0.0,0.0,0.0
7.8549792701378465,5.119992256164551,-10.24000358581543,4.196166987213701e-07,0.0,0.0,0.0
7.857045707991347,0.0,0.0,0.0012506866455073151,0.0,0.0,0.0
7.859544998034835,-5.119999885559082,3.814697265625e-06,-0.00249916076660206,0.0,0.0,0.0
7.8615988900419325,-5.119996070861816,5.120003700256348,4.196166987213701e-07,0.0,0.0,0.0
7.863634767010808,-10.239992141723633,10.240007400512695,-0.00249916076660206,0.0,0.0,0.0
7.865727516124025,5.119999885559082,-3.814697265625e-06,4.196166987213701e-07,0.0,0.0,0.0
7.86995195527561,1.2799959182739258,-5.120000839233398,0.00031322479247997137,0.0,0.0,0.0
7.872481589205563,-5.119996070861816,5.120003700256348,-0.0006242370605473724,0.0,0.0,0.0
7.874587102327496,5.119992256164551,-10.24000358581543,0.0012506866455073151,0.0,0.0,0.0
7.8774818503297865,2.559999942779541,-1.9073486328125e-06,-0.0006242370605473724,0.0,0.0,0.0
7.879835298284888,3.814697265625e-06,5.119999885559082,-0.0012498474121098724,0.0,0.0,0.0
7.882127943215892,0.0,0.0,-0.0012498474121098724,0.0,0.0,0.0
7.884242273168638,10.239995956420898,-5.120007514953613,0.0024999999999995026,0.0,0.0,0.0
7.8863657743204385,3.814697265625e-06,5.119999885559082,4.196166987213701e-07,0.0,0.0,0.0
7.888448285171762,-10.239999771118164,7.62939453125e-06,4.196166987213701e-07,0.0,0.0,0.0
7.890512460377067,-3.814697265625e-06,-5.119999885559082,0.0024999999999995026,0.0,0.0,0.0
7.892547416267917,3.814697265625e-06,5.119999885559082,4.196166987213701e-07,0.0,0.0,0.0
7.895253556314856,5.119996070861816,-5.120003700256348,-0.0012498474121098724,0.0,0.0,0.0
7.897306042257696,-10.239995956420898,5.120007514953613,-0.0012498474121098724,0.0,0.0,0.0
7.899334904272109,3.814697265625e-06,5.119999885559082,4.196166987213701e-07,0.0,0.0,0.0
7.901397350244224,0.0,0.0,0.0012506866455073151,0.0,0.0,0.0
7.905564724467695,1.2799959182739258,-5.120000839233398,0.00031322479247997137,0.0,0.0,0.0
7.909271466545761,1.2799999713897705,-9.5367431640625e-07,0.00031322479247997137,0.0,0.0,0.0
7.912043233402073,2.5599937438964844,-7.680001735687256,0.0006250762939448151,0.0,0.0,0.0
7.9142236455809325,-5.119992256164551,10.24000358581543,4.196166987213701e-07,0.0,0.0,0.0
7.916243596468121,-5.119996070861816,5.120003700256348,-0.0012498474121098724,0.0,0.0,0.0
7.918373019434512,5.119992256164551,-10.24000358581543,0.0012506866455073151,0.0,0.0,0.0
7.920482886489481,3.814697265625e-06,5.119999885559082,-0.0012498474121098724,0.0,0.0,0.0
7.922647595405579,5.119996070861816,-5.120003700256348,4.196166987213701e-07,0.0,0.0,0.0
7.924738728441298,-5.119987487792969,15.360003471374512,-0.00249916076660206,0.0,0.0,0.0
7.926774966530502,-3.814697265625e-06,-5.119999885559082,4.196166987213701e-07,0.0,0.0,0.0
7.928931117523462,0.0,0.0,4.196166987213701e-07,0.0,0.0,0.0
7.930858283536509,5.119999885559082,-3.814697265625e-06,0.0024999999999995026,0.0,0.0,0.0
7.932946273591369,-10.239992141723633,10.240007400512695,-0.0012498474121098724,0.0,0.0,0.0
7.93591552041471,3.814697265625e-06,5.119999885559082,4.196166987213701e-07,0.0,0.0,0.0
7.939062306424603,5.119996070861816,-5.120003700256348,0.0006250762939448151,0.0,0.0,0.0
7.94122592639178,-5.119996070861816,5.120003700256348,-0.0012498474121098724,0.0,0.0,0.0
7.943325678585097,-10.239992141723633,10.240007400512695,-0.0012498474121098724,0.0,0.0,0.0
7.94552970957011,5.119999885559082,-3.814697265625e-06,4.196166987213701e-07,0.0,0.0,0.0
7.947453630622476,-5.119992256164551,10.24000358581543,-0.0012498474121098724,0.0,0.0,0.0
7.949564749607816,10.239986419677734,-15.360007286071777,0.00500053405761669,0.0,0.0,0.0
7.9516703824047,-15.35999584197998,5.120012283325195,-0.0012498474121098724,0.0,0.0,0.0
7.953845018520951,7.62939453125e-06,10.239999771118164,-0.0012498474121098724,0.0,0.0,0.0
7.955936445621774,-3.814697265625e-06,-5.119999885559082,0.0012506866455073151,0.0,0.0,0.0
7.95807653455995,-10.239992141723633,10.240007400512695,-0.0012498474121098724,0.0,0.0,0.0
7.960476046428084,5.119992256164551,-10.24000358581543,0.0024999999999995026,0.0,0.0,0.0
7.962692434433848,-5.119996070861816,5.120003700256348,-0.0012498474121098724,0.0,0.0,0.0
7.964863924542442,5.119996070861816,-5.120003700256348,0.0012506866455073151,0.0,0.0,0.0
7.966942739440128,0.0,0.0,4.196166987213701e-07,0.0,0.0,0.0
7.969044653465971,10.239986419677734,-15.360007286071777,0.0012506866455073151,0.0,0.0,0.0
7.971189214615151,5.120003700256348,5.119996070861816,-0.0012498474121098724,0.0,0.0,0.0
7.973622307414189,0.0,0.0,-0.0012498474121098724,0.0,0.0,0.0
7.975585762411356,-5.119999885559082,3.814697265625e-06,-0.0012498474121098724,0.0,0.0,0.0
7.977834491524845,-3.814697265625e-06,-5.119999885559082,0.0012506866455073151,0.0,0.0,0.0
7.980589114595205,2.559999942779541,-1.9073486328125e-06,0.0012506866455073151,0.0,0.0,0.0
7.982796494616196,5.119992256164551,-10.24000358581543,0.0012506866455073151,0.0,0.0,0.0
7.985225731506944,-5.119999885559082,3.814697265625e-06,-0.00249916076660206,0.0,0.0,0.0
7.988230519462377,-2.559998035430908,2.560001850128174,-0.0012498474121098724,0.0,0.0,0.0
7.991107227513567,-1.9073486328125e-06,-2.559999942779541,0.0006250762939448151,0.0,0.0,0.0
7.993629499571398,-2.5600037574768066,-5.119997978210449,-0.0012498474121098724,0.0,0.0,0.0
7.995925951516256,-5.119999885559082,3.814697265625e-06,0.0012506866455073151,0.0,0.0,0.0
7.99805049947463,-5.119999885559082,3.814697265625e-06,4.196166987213701e-07,0.0,0.0,0.0
8.000165498582646,10.239984512329102,-20.48000717163086,0.0012506866455073151,0.0,0.0,0.0
8.002271020552143,-5.119996070861816,5.120003700256348,-0.0012498474121098724,0.0,0.0,0.0
8.004457327537239,10.239992141723633,-10.240007400512695,0.0024999999999995026,0.0,0.0,0.0
8.00637531047687,-5.119987487792969,15.360003471374512,4.196166987213701e-07,0.0,0.0,0.0
8.0085261114873,3.814697265625e-06,5.119999885559082,-0.0012498474121098724,0.0,0.0,0.0
8.010554018430412,0.0,0.0,4.196166987213701e-07,0.0,0.0,0.0
8.012803771533072,-5.119996070861816,5.120003700256348,4.196166987213701e-07,0.0,0.0,0.0
8.01473889942281,-3.814697265625e-06,-5.119999885559082,4.196166987213701e-07,0.0,0.0,0.0
8.016762776533142,20.479991912841797,-10.240015029907227,0.0024999999999995026,0.0,0.0,0.0
8.019713985500857,-10.239992141723633,10.240007400512695,-0.00249916076660206,0.0,0.0,0.0
8.021779875503853,5.119996070861816,-5.120003700256348,4.196166987213701e-07,0.0,0.0,0.0
8.023966236505657,-10.239992141723633,10.240007400512695,-0.00249916076660206,0.0,0.0,0.0
8.025868015596643,5.119999885559082,-3.814697265625e-06,0.0012506866455073151,0.0,0.0,0.0
8.02828762657009,15.3599853515625,-20.480010986328125,0.0037502670288080964,0.0,0.0,0.0
8.030560369603336,-10.239992141723633,10.240007400512695,-0.00249916076660206,0.0,0.0,0.0
8.033046821597964,0.0,0.0,0.0012506866455073151,0.0,0.0,0.0
8.035077723441646,-5.119999885559082,3.814697265625e-06,4.196166987213701e-07,0.0,0.0,0.0
8.037058904534206,15.359979629516602,-25.600013732910156,0.006250801086425284,0.0,0.0,0.0
8.039220348466188,-20.479978561401367,25.60001564025879,-0.004999694824219247,0.0,0.0,0.0
8.041065036552027,-10.239992141723633,10.240007400512695,-0.0012498474121098724,0.0,0.0,0.0
8.043078498449177,5.119992256164551,-10.24000358581543,0.0012506866455073151,0.0,0.0,0.0
8.045076216571033,7.62939453125e-06,10.239999771118164,4.196166987213701e-07,0.0,0.0,0.0
8.047165650408715,5.120003700256348,5.119996070861816,4.196166987213701e-07,0.0,0.0,0.0
8.049220345448703,-10.239986419677734,15.360007286071777,-0.00249916076660206,0.0,0.0,0.0
8.051383261568844,-5.119999885559082,3.814697265625e-06,4.196166987213701e-07,0.0,0.0,0.0
8.054100529523566,-5.119992256164551,10.24000358581543,-0.0012498474121098724,0.0,0.0,0.0
8.05624338844791,5.119999885559082,-3.814697265625e-06,4.196166987213701e-07,0.0,0.0,0.0
8.058134462451562,10.239984512329102,-20.48000717163086,0.0024999999999995026,0.0,0.0,0.0
8.060413866536692,-5.119996070861816,5.120003700256348,4.196166987213701e-07,0.0,0.0,0.0
8.06251113745384,5.119996070861816,-5.120003700256348,4.196166987213701e-07,0.0,0.0,0.0
8.064773803576827,-10.239984512329102,20.48000717163086,-0.0037494277954106536,0.0,0.0,0.0
8.06661312840879,25.599987030029297,-20.48002052307129,0.00500053405761669,0.0,0.0,0.0
8.068783172406256,-5.119996070861816,5.120003700256348,4.196166987213701e-07,0.0,0.0,0.0
8.07080323761329,5.119992256164551,-10.24000358581543,0.0024999999999995026,0.0,0.0,0.0
8.0728964144364,0.0,0.0,0.0012506866455073151,0.0,0.0,0.0
8.074869259493425,-5.119996070861816,5.120003700256348,-0.00249916076660206,0.0,0.0,0.0
8.076993122464046,0.0,0.0,0.0012506866455073151,0.0,0.0,0.0
8.07899453653954,-5.119987487792969,15.360003471374512,-0.00249916076660206,0.0,0.0,0.0
8.081118119414896,-10.239995956420898,5.120007514953613,-0.0012498474121098724,0.0,0.0,0.0
8.0831973424647,-7.62939453125e-06,-10.239999771118164,4.196166987213701e-07,0.0,0.0,0.0
8.085245369467884,-5.120007514953613,-10.239995956420898,0.0024999999999995026,0.0,0.0,0.0
8.087297092424706,5.119996070861816,-5.120003700256348,0.0012506866455073151,0.0,0.0,0.0
8.089518510503694,10.239986419677734,-15.360007286071777,0.0037502670288080964,0.0,0.0,0.0
8.091895445482805,5.119999885559082,-3.814697265625e-06,0.0012506866455073151,0.0,0.0,0.0
8.094099709531292,-5.119996070861816,5.120003700256348,0.0012506866455073151,0.0,0.0,0.0
8.09650286543183,-7.62939453125e-06,-10.239999771118164,0.0024999999999995026,0.0,0.0,0.0
8.099579208530486,-1.9073486328125e-06,-2.559999942779541,4.196166987213701e-07,0.0,0.0,0.0
8.101832285523415,5.119996070861816,-5.120003700256348,0.0012506866455073151,0.0,0.0,0.0
8.103752756491303,-5.119996070861816,5.120003700256348,-0.0012498474121098724,0.0,0.0,0.0
8.10583015345037,-10.239986419677734,15.360007286071777,-0.0037494277954106536,0.0,0.0,0.0
8.107996369479224,-5.119987487792969,15.360003471374512,-0.00249916076660206,0.0,0.0,0.0
8.110532970400527,5.119999885559082,-3.814697265625e-06,0.0012506866455073151,0.0,0.0,0.0
8.11256801453419,10.239992141723633,-10.240007400512695,4.196166987213701e-07,0.0,0.0,0.0
8.114691845607013,-3.814697265625e-06,-5.119999885559082,0.0012506866455073151,0.0,0.0,0.0
8.116791370557621,10.239995956420898,-5.120007514953613,4.196166987213701e-07,0.0,0.0,0.0
8.118884025607258,-5.119996070861816,5.120003700256348,-0.00249916076660206,0.0,0.0,0.0
8.120887447614223,10.239984512329102,-20.48000717163086,0.0037502670288080964,0.0,0.0,0.0
8.123025340493768,-5.119992256164551,10.24000358581543,-0.0012498474121098724,0.0,0.0,0.0
8.125050968490541,5.119992256164551,-10.24000358581543,0.0012506866455073151,0.0,0.0,0.0
8.127115349518135,-10.239992141723633,10.240007400512695,-0.00249916076660206,0.0,0.0,0.0
8.129182883538306,10.239992141723633,-10.240007400512695,0.0012506866455073151,0.0,0.0,0.0
8.131326183443889,5.119996070861816,-5.120003700256348,-0.0012498474121098724,0.0,0.0,0.0
8.133212862536311,-10.239992141723633,10.240007400512695,-0.0037494277954106536,0.0,0.0,0.0
8.135621598456055,3.814697265625e-06,5.119999885559082,-0.00249916076660206,0.0,0.0,0.0
8.137586461612955,-3.814697265625e-06,-5.119999885559082,-0.0012498474121098724,0.0,0.0,0.0
8.140156409470364,20.479984283447266,-20.48001480102539,0.0037502670288080964,0.0,0.0,0.0
8.142044199397787,5.119996070861816,-5.120003700256348,4.196166987213701e-07,0.0,0.0,0.0
8.144259655615315,10.239992141723633,-10.240007400512695,0.0024999999999995026,0.0,0.0,0.0
8.14638296654448,5.119999885559082,-3.814697265625e-06,4.196166987213701e-07,0.0,0.0,0.0
8.148514493601397,15.359991073608398,-10.240012168884277,0.0012506866455073151,0.0,0.0,0.0
8.150902308523655,0.0,0.0,4.196166987213701e-07,0.0,0.0,0.0
8.15266029839404,10.239992141723633,-10.240007400512695,0.0024999999999995026,0.0,0.0,0.0
8.15472663845867,-10.239999771118164,7.62939453125e-06,-0.0012498474121098724,0.0,0.0,0.0
8.156806803541258,-3.814697265625e-06,-5.119999885559082,0.0012506866455073151,0.0,0.0,0.0
8.158872469561175,15.359991073608398,-10.240012168884277,0.0024999999999995026,0.0,0.0,0.0
8.161431534448639,-3.814697265625e-06,-5.119999885559082,0.0012506866455073151,0.0,0.0,0.0
8.163535864558071,-5.120003700256348,-5.119996070861816,0.0012506866455073151,0.0,0.0,0.0
8.165586148621514,-5.119999885559082,3.814697265625e-06,4.196166987213701e-07,0.0,0.0,0.0
8.167672623414546,-7.62939453125e-06,-10.239999771118164,0.0012506866455073151,0.0,0.0,0.0
8.169808017555624,3.814697265625e-06,5.119999885559082,-0.00249916076660206,0.0,0.0,0.0
8.171845268458128,5.119999885559082,-3.814697265625e-06,4.196166987213701e-07,0.0,0.0,0.0
8.174148018471897,5.119992256164551,-10.24000358581543,4.196166987213701e-07,0.0,0.0,0.0
8.177224587416276,3.814697265625e-06,5.119999885559082,-0.0012498474121098724,0.0,0.0,0.0
8.179536640411243,-5.119999885559082,3.814697265625e-06,4.196166987213701e-07,0.0,0.0,0.0
8.18175105145201,-5.119996070861816,5.120003700256348,4.196166987213701e-07,0.0,0.0,0.0
8.184006409486756,-5.119999885559082,3.814697265625e-06,-0.0012498474121098724,0.0,0.0,0.0
8.186061487533152,-10.239995956420898,5.120007514953613,-0.0012498474121098724,0.0,0.0,0.0
8.188279506517574,-5.119999885559082,3.814697265625e-06,-0.0012498474121098724,0.0,0.0,0.0
8.19037909549661,0.0,0.0,4.196166987213701e-07,0.0,0.0,0.0
8.192491783527657,3.814697265625e-06,5.119999885559082,0.0012506866455073151,0.0,0.0,0.0
8.1945220164489,5.119992256164551,-10.24000358581543,0.0012506866455073151,0.0,0.0,0.0
8.196533728390932,0.0,0.0,0.0012506866455073151,0.0,0.0,0.0
8.198562835576013,-5.119999885559082,3.814697265625e-06,0.0012506866455073151,0.0,0.0,0.0
8.20056780660525,5.119992256164551,-10.24000358581543,4.196166987213701e-07,0.0,0.0,0.0
8.202789887553081,10.239999771118164,-7.62939453125e-06,4.196166987213701e-07,0.0,0.0,0.0
8.204860747558996,0.0,0.0,4.196166987213701e-07,0.0,0.0,0.0
8.206943006487563,5.119999885559082,-3.814697265625e-06,4.196166987213701e-07,0.0,0.0,0.0
8.20909219654277,-10.239992141723633,10.240007400512695,-0.00249916076660206,0.0,0.0,0.0
8.211098537547514,-5.119999885559082,3.814697265625e-06,-0.00249916076660206,0.0,0.0,0.0
8.213230507448316,5.119992256164551,-10.24000358581543,4.196166987213701e-07,0.0,0.0,0.0
8.215379599481821,10.239992141723633,-10.240007400512695,0.0037502670288080964,0.0,0.0,0.0
8.21740674553439,-10.239986419677734,15.360007286071777,-0.0037494277954106536,0.0,0.0,0.0
8.219451436540112,0.0,0.0,-0.0012498474121098724,0.0,0.0,0.0
